time,accX,accY,accZ,gyroX,gyroY,gyroZ,magX,magY,magZ
8267.488,0.022,-0.025,1.02,0.783,-0.14,0.345,21.9392534805679,-6.45817754059931,-41.3764618089164
8313.232,0.022,-0.025,1.02,0.783,-0.14,0.345,22.5242346663346,-6.69880991406644,-41.3764618089164
8346.271,0.024,-0.017,1.024,0.748,0.354,0.708,22.5242346663346,-6.69880991406644,-41.3764618089164
8412.517,0.024,-0.017,1.024,0.748,0.354,0.708,22.1731562672673,-6.6986390285873,-41.454634528204
8425.046,0.02,-0.014,1.014,0.249,0.721,0.402,22.1731562672673,-6.6986390285873,-41.454634528204
8505.658,0.019,-0.012,1.013,-0.126,0.148,0.56,22.1731562672673,-6.6986390285873,-41.454634528204
8510.401,0.019,-0.012,1.013,-0.126,0.148,0.56,21.9422235208722,-6.33974109413622,-40.5165618967527
8584.438,0.015,-0.026,1.011,0.455,0.739,-0.065,21.9422235208722,-6.33974109413622,-40.5165618967527
8609.682,0.015,-0.026,1.011,0.455,0.739,-0.065,21.4730737076807,-7.18041643195895,-41.2201163703412
8663.22,0.012,-0.014,1.01,1.36,1.64,0.8,21.4730737076807,-7.18041643195895,-41.2201163703412
8708.967,0.012,-0.014,1.01,1.36,1.64,0.8,21.4696563036566,-7.17836580620934,-42.1581890017924
8744.057,0.008,0.002,1.023,1.378,3.836,0.175,21.4696563036566,-7.17836580620934,-42.1581890017924
8808.256,0.008,0.002,1.023,1.378,3.836,0.175,20.7682327272272,-6.45715222772451,-41.845498124642
8822.833,-0.001,-0.017,1.008,3.351,6.002,-1.338,20.7682327272272,-6.45715222772451,-41.845498124642
8903.439,-0.002,-0.018,1.031,2.1,6.16,-1.408,20.7682327272272,-6.45715222772451,-41.845498124642
8906.132,-0.002,-0.018,1.031,2.1,6.16,-1.408,20.5349398842988,-6.45749399868278,-41.6891526860668
8982.222,-0.011,0,1.05,-1.001,10.263,0.074,20.5349398842988,-6.45749399868278,-41.6891526860668
9005.417,-0.011,0,1.05,-1.001,10.263,0.074,20.185731692978,-7.4201943780304,-41.6109799667792
9061.009,-0.036,-0.024,1.023,2.104,15.785,-0.262,20.185731692978,-7.4201943780304,-41.6109799667792
9104.707,-0.036,-0.024,1.023,2.104,15.785,-0.262,18.07722743646,-7.17751137881368,-42.5490525982304
9141.844,-0.06,-0.003,1.015,1.299,12.385,1.159,18.07722743646,-7.17751137881368,-42.5490525982304
9203.988,-0.06,-0.003,1.015,1.299,12.385,1.159,19.0138565886313,-7.4186564087182,-42.3145344403676
9220.616,-0.067,0.007,1.037,-3.08,11.956,0.595,19.0138565886313,-7.4186564087182,-42.3145344403676
9299.171,-0.067,0.007,1.037,-2.73,18.291,-0.918,19.0138565886313,-7.4186564087182,-42.3145344403676
9301.546,-0.096,-0.014,1.002,-2.73,18.291,-0.918,18.0756016359485,-5.97434951147806,-42.5490525982304
9380.01,-0.122,-0.031,0.996,-0.188,18.545,-0.669,18.0756016359485,-5.97434951147806,-42.5490525982304
9401.155,-0.122,-0.031,0.996,-0.188,18.545,-0.669,16.6706355708415,-7.17546075306407,-43.4871252296817
9458.794,-0.148,-0.004,1.001,-1.08,19.215,1.001,16.6706355708415,-7.17546075306407,-43.4871252296817
9500.438,-0.148,-0.004,1.001,-1.08,19.215,1.001,15.2681518058853,-7.89718698798631,-43.5652979489693
9539.618,-0.179,-0.003,0.992,-0.997,24.596,-0.358,15.2681518058853,-7.89718698798631,-43.5652979489693
9599.721,-0.179,-0.003,0.992,-0.997,24.596,-0.358,13.1583883597084,-6.09090621767068,-44.2688524225577
9618.399,-0.22,-0.027,1.037,-4.869,26.341,-2.485,13.1583883597084,-6.09090621767068,-44.2688524225577
9696.959,-0.259,-0.029,0.97,-3.281,31.473,-2.231,10.5874075923125,-5.73115385582393,-43.7216433875445
9777.781,-0.29,-0.038,0.983,-6.925,31.985,-2.423,10.5874075923125,-5.73115385582393,-43.7216433875445
9796.874,-0.29,-0.038,0.983,-6.925,31.985,-2.423,8.24231529245957,-5.36661670056144,-45.3632704925842
9856.565,-0.336,-0.046,0.971,-2.178,38.521,-2.266,8.24231529245957,-5.36661670056144,-45.3632704925842
9896.162,-0.336,-0.046,0.971,-2.178,38.521,-2.266,4.26868710573968,-6.44980415212177,-45.206925054009
9935.34,-0.336,-0.046,0.971,-1.588,45.307,-0.984,4.26868710573968,-6.44980415212177,-45.206925054009
9937.716,-0.385,-0.077,0.936,-1.588,45.307,-0.984,4.26868710573968,-6.44980415212177,-45.206925054009
9995.458,-0.385,-0.077,0.936,-1.588,45.307,-0.984,1.46225635536691,-6.81041094136418,-45.3632704925842
10016.185,-0.451,-0.023,0.896,2.677,44.616,4.812,1.46225635536691,-6.81041094136418,-45.3632704925842
10092.69,-0.451,-0.023,0.896,2.677,44.616,4.812,-0.992607181468481,-6.69060741106802,-45.1287523347214
10094.965,-0.497,-0.048,0.867,-4.843,43.295,2.476,-0.992607181468481,-6.69060741106802,-45.1287523347214
10175.575,-0.55,-0.049,0.871,-4.856,46.803,0.94,-0.992607181468481,-6.69060741106802,-45.1287523347214
10192.617,-0.55,-0.049,0.871,-4.856,46.803,0.94,-5.90672713947021,-5.72705260432473,-45.597788650447
10254.349,-0.621,-0.015,0.765,-2.436,54.648,0.175,-5.90672713947021,-5.72705260432473,-45.597788650447
10291.898,-0.621,-0.015,0.765,-2.436,54.648,0.175,-8.71148848994791,-5.00669345323556,-44.8942341768586
10333.125,-0.669,-0.081,0.756,-8.684,43.78,-3.92,-8.71148848994791,-5.00669345323556,-44.8942341768586
10389.129,-0.669,-0.081,0.756,-8.684,43.78,-3.92,-11.5193006335971,-3.9238477726335,-44.8942341768586
10413.958,-0.704,-0.088,0.678,-7.245,45.53,0.192,-11.5193006335971,-3.9238477726335,-44.8942341768586
10488.415,-0.704,-0.088,0.678,-7.245,45.53,0.192,-14.6740426992177,-3.80506955521214,-44.1906797032701
10492.742,-0.746,-0.083,0.719,-1.168,35.857,3.928,-14.6740426992177,-3.80506955521214,-44.1906797032701
10573.346,-0.785,-0.06,0.618,-5.919,48.492,0.52,-14.6740426992177,-3.80506955521214,-44.1906797032701
10588.342,-0.785,-0.06,0.618,-5.919,48.492,0.52,-17.3606944077709,-4.1673851992459,-43.5652979489693
10652.121,-0.823,-0.057,0.588,1.968,40.993,1.929,-17.3606944077709,-4.1673851992459,-43.5652979489693
10687.624,-0.823,-0.057,0.588,1.968,40.993,1.929,-20.2816537416763,-2.72615424063016,-42.3927071596552
10730.906,-0.85,-0.089,0.531,-1.133,39.116,0.87,-20.2816537416763,-2.72615424063016,-42.3927071596552
10784.864,-0.85,-0.089,0.531,-1.133,39.116,0.87,-23.6679810225299,-3.45027287226027,-41.3764618089164
10811.743,-0.864,-0.09,0.442,-2.66,43.067,1.99,-23.6679810225299,-3.45027287226027,-41.3764618089164
10884.149,-0.864,-0.09,0.442,-2.66,43.067,1.99,-25.0681046909528,-3.81275940177315,-40.6729073353279
10890.525,-0.896,-0.066,0.455,-2.493,26.718,4.427,-25.0681046909528,-3.81275940177315,-40.6729073353279
10969.077,-0.926,-0.049,0.432,0.196,18.869,4.873,-25.0681046909528,-3.81275940177315,-40.6729073353279
10984.071,-0.926,-0.049,0.432,0.196,18.869,4.873,-25.7699352546684,-3.21152023906361,-40.5165618967527
11049.905,-0.921,-0.064,0.38,-3.342,16.528,0.7,-25.7699352546684,-3.21152023906361,-40.5165618967527
11081.311,-0.921,-0.064,0.38,-3.342,16.528,0.7,-25.8851577577893,-3.21254555193841,-40.0475255810271
11128.69,-0.934,-0.069,0.376,-4.445,16.975,-1.894,-25.8851577577893,-3.21254555193841,-40.0475255810271
11180.595,-0.934,-0.069,0.376,-4.445,16.975,-1.894,-28.5740048341913,-2.37135755767828,-39.5784892653015
11207.471,-0.94,-0.073,0.371,-1.82,22.12,-3.692,-28.5740048341913,-2.37135755767828,-39.5784892653015
11279.876,-0.94,-0.073,0.371,-1.82,22.12,-3.692,-29.62207462324,-3.45591209307168,-38.7967620724254
11288.304,-0.95,-0.089,0.317,1.273,20.16,-1.4,-29.62207462324,-3.45591209307168,-38.7967620724254
11366.855,-0.949,-0.072,0.333,3.211,9.493,2.126,-29.62207462324,-3.45591209307168,-38.7967620724254
11379.807,-0.949,-0.072,0.333,3.211,9.493,2.126,-29.3857713635738,-3.5775953636383,-38.1713803181246
11447.686,-0.953,-0.065,0.282,4.983,10.565,3.237,-29.3857713635738,-3.5775953636383,-38.1713803181246
11477.037,-0.953,-0.065,0.282,4.983,10.565,3.237,-29.7407145303849,-3.45488678019687,-39.265798388151
11526.467,-0.961,-0.073,0.282,1.513,6.129,0.813,-29.7407145303849,-3.45488678019687,-39.265798388151
11576.324,-0.961,-0.073,0.282,1.513,6.129,0.813,-29.2649764650137,-4.541662826819,-37.4678258445361
11605.256,-0.963,-0.056,0.297,2.104,1.977,1.863,-29.2649764650137,-4.541662826819,-37.4678258445361
11675.607,-0.963,-0.056,0.297,2.104,1.977,1.863,-30.7895568432558,-4.17832186991045,-38.5622439145626
11686.085,-0.949,-0.068,0.298,1.47,-0.949,1.001,-30.7895568432558,-4.17832186991045,-38.5622439145626
11764.629,-0.963,-0.048,0.288,2.428,-0.56,3.425,-30.7895568432558,-4.17832186991045,-38.5622439145626
11773.471,-0.963,-0.048,0.288,2.428,-0.56,3.425,-30.7875240554582,-5.26150932147077,-38.4058984759874
11843.414,-0.965,-0.069,0.295,-0.336,-1.601,0.743,-30.7875240554582,-5.26150932147077,-38.4058984759874
11872.761,-0.965,-0.069,0.295,-0.336,-1.601,0.743,-29.0357927970642,-4.65907396040729,-38.7967620724254
11924.253,-0.964,-0.037,0.296,2.813,-1.369,3.74,-29.0357927970642,-4.65907396040729,-38.7967620724254
11972.051,-0.964,-0.037,0.296,2.813,-1.369,3.74,-28.9171943406696,-5.2611675505125,-38.5622439145626
12003.034,-0.961,-0.038,0.289,4.952,-4.598,2.323,-28.9171943406696,-5.2611675505125,-38.5622439145626
12071.329,-0.961,-0.038,0.289,4.952,-4.598,2.323,-29.2700218181825,-5.01950986417058,-39.0312802302882
12081.806,-0.956,-0.045,0.316,3.408,-11.392,-0.958,-29.2700218181825,-5.01950986417058,-39.0312802302882
12162.409,-0.947,-0.053,0.347,0.577,-16.406,-1.903,-29.2700218181825,-5.01950986417058,-39.0312802302882
12169.202,-0.947,-0.053,0.347,0.577,-16.406,-1.903,-28.2204888086734,-5.01780100937924,-39.8130074231643
12241.189,-0.93,-0.066,0.371,-2.428,-18.449,-1.185,-28.2204888086734,-5.01780100937924,-39.8130074231643
12268.483,-0.93,-0.066,0.371,-2.428,-18.449,-1.185,-27.1662781311647,-5.74021078621801,-39.5784892653015
12322.021,-0.92,-0.05,0.348,-0.704,-14.686,1.168,-27.1662781311647,-5.74021078621801,-39.5784892653015
12367.768,-0.92,-0.05,0.348,-0.704,-14.686,1.168,-25.4164181548339,-5.01643392554617,-40.4383891774651
12400.807,-0.895,-0.043,0.348,4.554,-21.656,3.031,-25.4164181548339,-5.01643392554617,-40.4383891774651
12467.058,-0.895,-0.043,0.348,4.554,-21.656,3.031,-23.4331049041569,-6.09569101108642,-42.0800162825048
12479.585,-0.908,-0.025,0.537,9.743,-38.758,3.696,-23.4331049041569,-6.09569101108642,-42.0800162825048
12560.187,-0.881,-0.044,0.467,4.681,-25.685,0.66,-23.4331049041569,-6.09569101108642,-42.0800162825048
12564.93,-0.881,-0.044,0.467,4.681,-25.685,0.66,-22.613894697272,-5.97588748079026,-41.845498124642
12638.967,-0.871,-0.021,0.525,5.608,-28.494,3.898,-22.613894697272,-5.97588748079026,-41.845498124642
12664.213,-0.871,-0.021,0.525,5.608,-28.494,3.898,-19.5731573958636,-8.26035705941574,-42.5490525982304
12717.751,-0.857,0,0.551,5.578,-28.923,5.057,-19.5731573958636,-8.26035705941574,-42.5490525982304
12763.5,-0.857,0,0.551,5.578,-28.923,5.057,-17.0048182857197,-6.45458894553751,-43.0180889139561
12798.586,-0.824,-0.014,0.634,0.315,-32.668,0.581,-17.0048182857197,-6.45458894553751,-43.0180889139561
12862.779,-0.824,-0.014,0.634,0.315,-32.668,0.581,-13.9670488759823,-7.17443544018927,-43.9561615454073
12877.357,-0.794,-0.01,0.632,-1.872,-27.466,-1.185,-13.9670488759823,-7.17443544018927,-43.9561615454073
12955.916,-0.794,-0.01,0.632,-0.494,-27.514,-1.299,-13.9670488759823,-7.17443544018927,-43.9561615454073
12958.291,-0.752,-0.023,0.607,-0.494,-27.514,-1.299,-13.9670488759823,-7.17443544018927,-43.9561615454073
12960.667,-0.752,-0.023,0.607,-0.494,-27.514,-1.299,-13.9670488759823,-7.17443544018927,-43.9561615454073
13036.761,-0.717,-0.018,0.643,-2.502,-41.829,-1.435,-13.9670488759823,-7.17443544018927,-43.9561615454073
13059.957,-0.717,-0.018,0.643,-2.502,-41.829,-1.435,-9.0591527079411,-7.53316248916122,-44.9724068961462
13115.545,-0.677,-0.052,0.824,-0.8,-54.906,2.738,-9.0591527079411,-7.53316248916122,-44.9724068961462
13159.239,-0.677,-0.052,0.824,-0.8,-54.906,2.738,-7.19057099728153,-6.44980415212177,-45.206925054009
13196.368,-0.639,-0.022,0.754,3.023,-29.745,3.211,-7.19057099728153,-6.44980415212177,-45.206925054009
13258.521,-0.639,-0.022,0.754,3.023,-29.745,3.211,-4.5004222061537,-7.41199187503199,-45.3632704925842
13275.149,-0.621,-0.008,0.783,4.536,-27.886,5.11,-4.5004222061537,-7.41199187503199,-45.3632704925842
13353.709,-0.587,0.012,0.833,7.161,-31.018,3.911,-4.5004222061537,-7.41199187503199,-45.3632704925842
13356.402,-0.587,0.012,0.833,7.161,-31.018,3.911,-0.990981380957005,-7.89376927840364,-45.1287523347214
13434.539,-0.541,0.016,0.815,14.363,-36.522,2.458,-0.990981380957005,-7.89376927840364,-45.1287523347214
13455.683,-0.541,0.016,0.815,14.363,-36.522,2.458,0.880366339205384,-7.17272658539794,-44.7378887382834
13513.322,-0.498,0.057,0.881,7.293,-47.801,4.987,0.880366339205384,-7.17272658539794,-44.7378887382834
13554.968,-0.498,0.057,0.881,7.293,-47.801,4.987,4.97214346996677,-8.25420518216693,-45.3632704925842
13594.15,-0.437,0.049,0.971,1.155,-47.425,-0.975,4.97214346996677,-8.25420518216693,-45.3632704925842
13654.258,-0.437,0.049,0.971,1.155,-47.425,-0.975,7.19794446815357,-8.97798204283877,-44.5033705804206
13672.934,-0.376,0.037,0.969,3.259,-41.181,-2.432,7.19794446815357,-8.97798204283877,-44.5033705804206
13751.488,-0.343,0.04,0.94,6.973,-24.784,-6.164,8.48463401401829,-9.93999888026986,-44.7378887382834
13832.317,-0.329,0.039,0.919,5.503,-18.108,-6.921,8.48463401401829,-9.93999888026986,-44.7378887382834
13851.413,-0.329,0.039,0.919,5.503,-18.108,-6.921,10.3572834489065,-9.33995591591425,-44.0343342646949
13911.097,-0.289,0.012,0.969,-6.26,-25.02,-5.871,10.3572834489065,-9.33995591591425,-44.0343342646949
13950.698,-0.289,0.012,0.969,-6.26,-25.02,-5.871,11.9926116187547,-9.33893060303945,-44.5033705804206
13989.875,-0.265,0,0.963,-4.659,-22.767,-4.003,11.9926116187547,-9.33893060303945,-44.5033705804206
14049.979,-0.265,0,0.963,-4.659,-22.767,-4.003,13.0441806390114,-7.89581990415325,-44.1906797032701
14070.707,-0.224,0.01,0.978,-5.744,-35.126,-0.774,13.0441806390114,-7.89581990415325,-44.1906797032701
14147.216,-0.224,0.01,0.978,-5.744,-35.126,-0.774,15.6212247649499,-7.05702430660098,-42.627225317518
14149.491,-0.151,0.006,1.036,-15.268,-44.34,0.468,15.6212247649499,-7.05702430660098,-42.627225317518
14230.096,-0.104,-0.021,0.996,-9.283,-32.711,-0.66,15.6212247649499,-7.05702430660098,-42.627225317518
14247.14,-0.104,-0.021,0.996,-9.283,-32.711,-0.66,18.0744625012738,-5.97366596956152,-42.8617434753809
14308.867,-0.079,-0.038,1.051,1.15,-26.079,-1.933,18.0744625012738,-5.97366596956152,-42.8617434753809
14346.421,-0.079,-0.038,1.051,1.15,-26.079,-1.933,18.7802385856006,-7.17836580620934,-42.1581890017924
14387.652,-0.058,-0.006,1.039,5.687,-17.539,1.33,18.7802385856006,-7.17836580620934,-42.1581890017924
14443.66,-0.058,-0.006,1.039,5.687,-17.539,1.33,19.4815814091628,-7.4186564087182,-42.3145344403676
14468.488,-0.043,0.005,0.979,9.1,-10.858,0.485,19.4815814091628,-7.4186564087182,-42.3145344403676
14542.94,-0.043,0.005,0.979,9.1,-10.858,0.485,20.5340440825425,-7.05804961947579,-42.1581890017924
14547.266,-0.026,0.002,1.033,6.23,-13.265,-1.828,20.5340440825425,-7.05804961947579,-42.1581890017924
14625.826,-0.007,-0.002,1.031,3.325,-11.06,-0.621,20.5340440825425,-7.05804961947579,-42.1581890017924
14642.87,-0.007,-0.002,1.031,3.325,-11.06,-0.621,21.1208147231884,-7.78063028179369,-41.845498124642
14706.654,0.002,0.009,1.031,2.016,-8.898,0.188,21.1208147231884,-7.78063028179369,-41.845498124642
14740.11,0.002,0.009,1.031,2.016,-8.898,0.188,22.173398525869,-8.14140795651524,-41.9236708439296
14785.437,0.007,0.011,1.022,2.839,-3.25,0.293,22.173398525869,-8.14140795651524,-41.9236708439296
14839.394,0.007,0.011,1.022,2.839,-3.25,0.293,21.8227685648382,-7.4201943780304,-41.6109799667792
14864.22,0.002,0.027,1.013,5.368,-0.656,1.198,21.8227685648382,-7.4201943780304,-41.6109799667792
14938.677,0.002,0.027,1.013,5.368,-0.656,1.198,21.5876851927139,-7.78011762535629,-42.0800162825048
14945.054,0.008,0.017,1.012,1.666,-1.435,0.166,21.5876851927139,-7.78011762535629,-42.0800162825048
15023.606,0.012,0.022,1.02,0.258,-2.143,0.389,21.5876851927139,-7.78011762535629,-42.0800162825048
15038.609,0.012,0.022,1.02,0.258,-2.143,0.389,21.9401875101245,-7.78114293823109,-41.6109799667792
15102.386,0.012,0.022,1.02,0.183,-0.743,-0.293,21.9401875101245,-7.78114293823109,-41.6109799667792
15104.761,0.015,0.017,1.009,0.183,-0.743,-0.293,21.9401875101245,-7.78114293823109,-41.6109799667792
15135.849,0.015,0.017,1.009,0.183,-0.743,-0.293,22.5252515973917,-6.8196387572374,-41.1419436510536
15183.227,0.013,0.026,1.02,2.086,-0.538,0.188,22.5252515973917,-6.8196387572374,-41.1419436510536
15235.13,0.013,0.026,1.02,2.086,-0.538,0.188,21.8248428033862,-7.90231355236032,-41.2201163703412
15262.011,0.015,0.024,1.017,1.548,0.179,0.319,21.8248428033862,-7.90231355236032,-41.2201163703412
15334.421,0.015,0.024,1.017,1.548,0.179,0.319,20.5383965904398,-7.54153587763877,-41.1419436510536
15340.799,0.015,0.024,1.017,0.962,1.373,-0.052,20.5383965904398,-7.54153587763877,-41.1419436510536
15343.174,0.014,0.032,1.023,0.962,1.373,-0.052,20.5383965904398,-7.54153587763877,-41.1419436510536
15421.411,0.001,0.027,1.014,0.625,2.646,-1.181,20.5383965904398,-7.54153587763877,-41.1419436510536
15432.305,0.001,0.027,1.014,0.625,2.646,-1.181,22.9927309363715,-7.90145912496465,-41.6109799667792
15500.184,0.006,0.033,1.006,0.42,0.608,-0.49,22.9927309363715,-7.90145912496465,-41.6109799667792
15531.579,0.006,0.033,1.006,0.42,0.608,-0.49,21.9427887909429,-9.70620192596808,-41.6109799667792
15581.018,0.015,0.022,1.029,-0.039,-0.52,-0.612,21.9427887909429,-9.70620192596808,-41.6109799667792
15630.865,0.015,0.022,1.029,-0.039,-0.52,-0.612,21.4702651731109,-8.260698830374,-42.3927071596552
15659.803,-0.001,0.036,1.004,1.478,3.871,0.28,21.4702651731109,-8.260698830374,-42.3927071596552
15730.154,-0.001,0.036,1.004,1.478,3.871,0.28,21.9413255704825,-8.62335624536602,-41.6109799667792
15738.587,-0.001,0.028,1.03,1.36,0.818,0.113,21.9413255704825,-8.62335624536602,-41.6109799667792
15819.182,-0.002,0.027,1.019,0.682,1.701,0.126,21.9413255704825,-8.62335624536602,-41.6109799667792
15828.025,-0.002,0.027,1.019,0.682,1.701,0.126,20.886993763673,-7.17956200456328,-41.6109799667792
15897.964,-0.002,0.037,1.003,0.8,1.343,0.332,20.886993763673,-7.17956200456328,-41.6109799667792
15927.31,-0.002,0.037,1.003,0.8,1.343,0.332,20.4199181890294,-8.50235651671593,-41.9236708439296
15976.748,0,0.033,1.013,1.417,-0.555,0.157,20.4199181890294,-8.50235651671593,-41.9236708439296
16026.597,0,0.033,1.013,1.417,-0.555,0.157,21.8256153272083,-8.26343299804014,-41.1419436510536
16057.584,-0.002,0.033,1.022,1.693,0.503,-0.538,21.8256153272083,-8.26343299804014,-41.1419436510536
16125.878,-0.002,0.033,1.022,1.693,0.503,-0.538,20.8903686426301,-8.62421067276169,-41.2201163703412
16136.354,0,0.037,1.027,0.258,0.315,-0.201,20.8903686426301,-8.62421067276169,-41.2201163703412
16216.965,-0.001,0.03,1.006,0.459,1.373,-0.113,20.8903686426301,-8.62421067276169,-41.2201163703412
16223.759,-0.001,0.03,1.006,0.459,1.373,-0.113,21.1223597708326,-8.50286917315333,-41.6891526860668
16295.751,-0.006,0.032,1.018,0.166,-0.511,0.844,21.1223597708326,-8.50286917315333,-41.6891526860668
16323.047,-0.006,0.032,1.018,0.166,-0.511,0.844,21.5904905043337,-9.22442452259643,-41.845498124642
16374.531,-0.007,0.037,1.026,0.411,-0.962,1.29,21.5904905043337,-9.22442452259643,-41.845498124642
16422.325,-0.007,0.037,1.026,0.411,-0.962,1.29,21.5903693750328,-8.50304005863246,-41.6109799667792
16455.363,-0.002,0.037,1,-0.008,1.281,-0.078,21.5903693750328,-8.50304005863246,-41.6109799667792
16521.614,-0.002,0.037,1,-0.008,1.281,-0.078,21.2387214086282,-8.50252740219506,-41.845498124642
16534.14,-0.007,0.033,1.018,0.953,-0.691,-0.468,21.2387214086282,-8.50252740219506,-41.845498124642
16612.699,-0.003,0.031,1.012,0.896,-0.196,-0.004,21.2387214086282,-8.50252740219506,-41.845498124642
16619.491,-0.003,0.031,1.012,0.896,-0.196,-0.004,21.121465043393,-8.26189502872794,-41.845498124642
16693.527,-0.005,0.034,1.018,1.404,0.603,-0.323,21.121465043393,-8.26189502872794,-41.845498124642
16718.771,-0.005,0.034,1.018,1.404,0.603,-0.323,21.592240657096,-8.62438155824082,-41.1419436510536
16772.31,-0.008,0.045,1.008,0.546,0.332,-0.306,21.592240657096,-8.62438155824082,-41.1419436510536
16818.058,-0.008,0.045,1.008,0.546,0.332,-0.306,21.1197148906307,-8.86193799308355,-42.5490525982304
16851.084,-0.008,0.045,1.008,3.093,0.07,0.673,21.1197148906307,-8.86193799308355,-42.5490525982304
16853.459,0,0.026,1.026,3.093,0.07,0.673,21.1197148906307,-8.86193799308355,-42.5490525982304
16917.341,0,0.026,1.026,3.093,0.07,0.673,20.5403061003033,-9.58639839567192,-41.3764618089164
16931.917,-0.024,0.041,1.034,17.815,8.281,4.471,20.5403061003033,-9.58639839567192,-41.3764618089164
17010.471,-0.027,0.131,0.982,20.413,7.538,2.957,20.5403061003033,-9.58639839567192,-41.3764618089164
17015.215,-0.027,0.131,0.982,20.413,7.538,2.957,20.19451423869,-11.3926791659875,-40.6729073353279
17091.307,-0.021,0.114,1.006,26.998,0.573,-7.796,20.19451423869,-11.3926791659875,-40.6729073353279
17114.503,-0.021,0.114,1.006,26.998,0.573,-7.796,19.3786767621288,-14.6401908949189,-41.1419436510536
17170.088,-0.033,0.229,0.988,49.997,3.049,-7.262,19.3786767621288,-14.6401908949189,-41.1419436510536
17213.782,-0.033,0.229,0.988,49.997,3.049,-7.262,18.8058955260982,-18.3740939351585,-39.265798388151
17248.862,-0.042,0.257,0.965,70.949,2.388,-10.723,18.8058955260982,-18.3740939351585,-39.265798388151
17313.069,-0.042,0.257,0.965,70.949,2.388,-10.723,20.8024278062017,-21.8656557471397,-38.1713803181246
17329.697,-0.045,0.363,0.939,57.277,-1.382,-8.588,20.8024278062017,-21.8656557471397,-38.1713803181246
17408.254,-0.039,0.401,0.922,51.778,-0.266,-7.936,20.8024278062017,-21.8656557471397,-38.1713803181246
17410.947,-0.039,0.401,0.922,51.778,-0.266,-7.936,19.8729968499811,-23.7927653606263,-37.2333076866733
17489.084,-0.049,0.496,0.92,34.868,-0.21,-4.064,19.8729968499811,-23.7927653606263,-37.2333076866733
17510.229,-0.049,0.496,0.92,34.868,-0.21,-4.064,18.8263902813927,-25.9601655766217,-36.4515804937973
17567.87,-0.053,0.495,0.892,35.284,3.714,-6.518,18.8263902813927,-25.9601655766217,-36.4515804937973
17609.517,-0.053,0.495,0.892,35.284,3.714,-6.518,19.4166176281796,-27.7667881178956,-35.5916805816336
17646.648,-0.078,0.557,0.798,38.46,9.003,-5.398,19.4166176281796,-27.7667881178956,-35.5916805816336
17708.804,-0.078,0.557,0.798,38.46,9.003,-5.398,18.8401352787729,-30.6569398816881,-34.4190897923195
17727.481,-0.071,0.583,0.819,40.731,-4.143,-8.001,18.8401352787729,-30.6569398816881,-34.4190897923195
17806.033,-0.07,0.63,0.79,47.136,-3.508,-5.591,18.4980859812859,-32.7059036512205,-32.7774626872799
17886.863,-0.076,0.676,0.763,37.353,-0.875,-4.213,18.4980859812859,-32.7059036512205,-32.7774626872799
17905.96,-0.076,0.676,0.763,37.353,-0.875,-4.213,18.0370716165517,-34.5132097344109,-31.6048718979658
17965.638,-0.09,0.707,0.681,30.918,3.85,-2.524,18.0370716165517,-34.5132097344109,-31.6048718979658
18005.24,-0.09,0.707,0.681,30.918,3.85,-2.524,18.3921369869804,-34.5157730165979,-30.4322811086517
18044.419,-0.095,0.752,0.658,39.659,1.57,-2.73,18.3921369869804,-34.5157730165979,-30.4322811086517
18104.524,-0.095,0.752,0.658,39.659,1.57,-2.73,17.8189923630472,-36.0855226649456,-27.8525813721607
18125.253,-0.094,0.784,0.652,36.701,1.929,-2.861,17.8189923630472,-36.0855226649456,-27.8525813721607
18201.762,-0.094,0.784,0.652,36.701,1.929,-2.861,17.4698256224767,-36.4471547670628,-27.5398904950103
18204.037,-0.098,0.814,0.587,36.802,9.174,-1.767,17.4698256224767,-36.4471547670628,-27.5398904950103
18282.594,-0.112,0.855,0.521,45.018,9.913,-2.66,17.4698256224767,-36.4471547670628,-27.5398904950103
18301.687,-0.112,0.855,0.521,45.018,9.913,-2.66,17.828675007782,-36.0913327712362,-25.1947089163822
18363.418,-0.12,0.842,0.498,56.739,1.802,-7.236,17.828675007782,-36.0913327712362,-25.1947089163822
18400.97,-0.12,0.842,0.498,56.739,1.802,-7.236,17.3687594012889,-37.6588609083551,-23.6312545306301
18442.201,-0.12,0.91,0.425,35.205,-0.048,-3.237,17.3687594012889,-37.6588609083551,-23.6312545306301
18500.258,-0.12,0.91,0.425,35.205,-0.048,-3.237,17.4928898766892,-38.9855857865279,-22.1459728641656
18520.985,-0.12,0.91,0.425,29.036,1.159,0.118,17.4928898766892,-38.9855857865279,-22.1459728641656
18523.359,-0.12,0.892,0.378,29.036,1.159,0.118,17.4928898766892,-38.9855857865279,-22.1459728641656
18597.498,-0.12,0.892,0.378,29.036,1.159,0.118,17.4968768480506,-38.9879781832357,-21.0515547941391
18601.825,-0.125,0.907,0.38,24.504,1.023,8.973,17.4968768480506,-38.9879781832357,-21.0515547941391
18680.37,-0.102,0.949,0.334,19.818,3.22,13.623,17.4968768480506,-38.9879781832357,-21.0515547941391
18697.415,-0.102,0.949,0.334,19.818,3.22,13.623,19.8379428744252,-38.268131688584,-20.1134821626879
18761.198,-0.079,0.958,0.308,30.174,1.942,11.825,19.8379428744252,-38.268131688584,-20.1134821626879
18796.704,-0.079,0.958,0.308,30.174,1.942,11.825,19.6094095266803,-38.6319853019299,-18.7845459347986
18839.981,-0.081,0.97,0.242,37.104,4.357,4.305,19.6094095266803,-38.6319853019299,-18.7845459347986
18895.983,-0.081,0.97,0.242,37.104,4.357,4.305,18.4452235813877,-38.6350612405543,-17.3774369876217
18918.762,-0.081,0.936,0.196,34.86,3.316,3.071,18.4452235813877,-38.6350612405543,-17.3774369876217
18993.222,-0.081,0.936,0.196,34.86,3.316,3.071,19.5018761826136,-38.6376245227413,-16.2048461983076
18999.6,-0.068,0.987,0.176,16.581,-0.831,7.293,19.5018761826136,-38.6376245227413,-16.2048461983076
19078.154,-0.056,0.986,0.143,16.27,-6.881,8.198,19.5018761826136,-38.6376245227413,-16.2048461983076
19093.158,-0.056,0.986,0.143,16.27,-6.881,8.198,20.9066371426026,-38.7587951368706,-15.8139826018696
19158.986,-0.042,1.009,0.181,5,-11.637,7.503,20.9066371426026,-38.7587951368706,-15.8139826018696
19192.439,-0.042,1.009,0.181,5,-11.637,7.503,19.1514098759506,-37.1951973657717,-15.5794644440068
19237.768,-0.042,0.988,0.149,14.555,-2.283,1.579,19.1514098759506,-37.1951973657717,-15.5794644440068
19291.724,-0.042,0.988,0.149,14.555,-2.283,1.579,19.8577162254977,-37.3182477201714,-14.3287009354051
19316.555,-0.047,0.977,0.131,14.73,0.319,0.691,19.8577162254977,-37.3182477201714,-14.3287009354051
19388.957,-0.047,0.977,0.131,14.73,0.319,0.691,19.1573499565591,-36.9583244728455,-13.8596646196795
19397.394,-0.032,0.988,0.088,7.393,0.363,1.216,19.1573499565591,-36.9583244728455,-13.8596646196795
19475.938,-0.042,0.993,0.129,2.17,-0.87,1.028,19.1573499565591,-36.9583244728455,-13.8596646196795
19488.882,-0.042,0.993,0.129,2.17,-0.87,1.028,20.5564556196082,-37.31653886538,-15.1104281282812
19556.768,-0.039,0.984,0.111,-0.525,1.596,-0.437,20.5564556196082,-37.31653886538,-15.1104281282812
19588.165,-0.039,0.984,0.111,-0.525,1.596,-0.437,20.5609707075567,-37.9203413102766,-14.0941827775423
19635.557,-0.038,0.988,0.08,7.459,-0.293,0.721,20.5609707075567,-37.9203413102766,-14.0941827775423
19687.454,-0.038,0.988,0.08,7.459,-0.293,0.721,19.505905679042,-37.1974188770004,-14.5632190932679
19714.341,-0.038,0.997,0.076,2.773,-0.581,0.739,19.505905679042,-37.1974188770004,-14.5632190932679
19784.686,-0.038,0.997,0.076,2.773,-0.581,0.739,18.8062715574918,-36.9581535873663,-13.9378373389671
19795.164,-0.041,0.995,0.092,0.564,-2.598,0.319,18.8062715574918,-36.9581535873663,-13.9378373389671
19873.718,-0.041,0.985,0.126,-7.936,-0.721,0.293,18.8062715574918,-36.9581535873663,-13.9378373389671
19884.613,-0.041,0.985,0.126,-7.936,-0.721,0.293,20.3215359018517,-36.9552485342211,-15.2667735668564
19952.504,-0.041,0.985,0.126,-25.781,2.069,-0.8,20.3215359018517,-36.9552485342211,-15.2667735668564
19954.879,-0.037,0.985,0.134,-25.781,2.069,-0.8,20.3215359018517,-36.9552485342211,-15.2667735668564
19983.909,-0.037,0.985,0.134,-25.781,2.069,-0.8,19.6149436943193,-37.6735570595606,-16.9084006718961
20033.347,-0.026,0.992,0.114,-32.921,-4.904,-2.821,19.6149436943193,-37.6735570595606,-16.9084006718961
20083.196,-0.026,0.992,0.114,-32.921,-4.904,-2.821,20.198339456008,-36.9514890536801,-16.9865733911837
20112.129,-0.046,0.96,0.308,-30.773,-17.018,-0.997,20.198339456008,-36.9514890536801,-16.9865733911837
20180.423,-0.046,0.96,0.308,-30.773,-17.018,-0.997,19.9573967561425,-38.0292081699082,-19.3317549698118
20192.951,-0.036,0.947,0.275,-38.246,5.166,1.841,19.9573967561425,-38.0292081699082,-19.3317549698118
20271.511,-0.033,0.955,0.286,-41.225,4.309,1.439,19.9573967561425,-38.0292081699082,-19.3317549698118
20280.354,-0.033,0.955,0.286,-41.225,4.309,1.439,19.1333463012067,-37.3045768818407,-20.5825184784135
20350.296,-0.037,0.964,0.351,-20.168,-2.835,2.677,19.1333463012067,-37.3045768818407,-20.5825184784135
20379.642,-0.037,0.964,0.351,-20.168,-2.835,2.677,18.900338241947,-37.3050895382781,-20.3480003205507
20431.129,-0.045,0.911,0.396,-5.009,0.245,0.293,18.900338241947,-37.3050895382781,-20.3480003205507
20476.872,-0.045,0.911,0.396,-5.009,0.245,0.293,19.5994835490271,-38.0249360329298,-21.286072952002
20509.909,-0.038,0.91,0.373,-9.051,3.714,0.866,19.5994835490271,-38.0249360329298,-21.286072952002
20576.159,-0.038,0.91,0.373,-9.051,3.714,0.866,20.178404599201,-36.9395270701408,-22.458663741316
20588.687,-0.038,0.91,0.373,-11.431,1.933,0.791,20.178404599201,-36.9395270701408,-22.458663741316
20591.062,-0.035,0.926,0.375,-11.431,1.933,0.791,20.178404599201,-36.9395270701408,-22.458663741316
20669.304,-0.036,0.922,0.404,-12.74,0.848,0.713,20.178404599201,-36.9395270701408,-22.458663741316
20676.098,-0.036,0.922,0.404,-12.74,0.848,0.713,20.9955394932213,-37.1791341307331,-22.9277000570416
20748.084,-0.036,0.897,0.421,-16.191,-0.49,-0.59,20.9955394932213,-37.1791341307331,-22.9277000570416
20775.378,-0.036,0.897,0.421,-16.191,-0.49,-0.59,19.1251694019992,-36.9390144137034,-22.6931818991788
20828.919,-0.039,0.891,0.453,-16.24,-2.506,-0.319,19.1251694019992,-36.9390144137034,-22.6931818991788
20872.618,-0.039,0.891,0.453,-16.24,-2.506,-0.319,19.9373407700345,-37.2958617224049,-24.5693271620814
20907.699,-0.028,0.901,0.473,-26.04,-0.148,0.993,19.9373407700345,-37.2958617224049,-24.5693271620814
20971.907,-0.028,0.901,0.473,-26.04,-0.148,0.993,18.5329464208982,-36.8142552045123,-24.7256726006566
20986.484,-0.04,0.853,0.515,-19.145,3.246,0.761,18.5329464208982,-36.8142552045123,-24.7256726006566
21067.086,-0.04,0.824,0.553,-21.52,2.821,1.592,18.5329464208982,-36.8142552045123,-24.7256726006566
21071.829,-0.04,0.824,0.553,-21.52,2.821,1.592,19.1103617255449,-36.08859860357,-26.4454724249839
21145.868,-0.035,0.878,0.508,-23.594,5.534,3.819,19.1103617255449,-36.08859860357,-26.4454724249839
21171.115,-0.035,0.878,0.508,-23.594,5.534,3.819,20.2758515341966,-34.5234628631589,-26.9145087407095
21226.709,-0.041,0.878,0.537,-21.853,2.668,0.481,20.2758515341966,-34.5234628631589,-26.9145087407095
21268.357,-0.041,0.878,0.537,-21.853,2.668,0.481,20.2751990653587,-35.7252576466615,-27.5398904950103
21305.485,-0.041,0.713,0.67,-18.033,-7.07,-5.731,20.2751990653587,-35.7252576466615,-27.5398904950103
21367.637,-0.041,0.713,0.67,-18.033,-7.07,-5.731,19.5662499842429,-34.2782165817552,-29.0251721614748
21384.266,-0.032,0.812,0.59,-33.534,1.47,3.758,19.5662499842429,-34.2782165817552,-29.0251721614748
21464.871,-0.039,0.747,0.701,-24.574,2.572,3.276,19.5662499842429,-34.2782165817552,-29.0251721614748
21467.565,-0.039,0.747,0.701,-24.574,2.572,3.276,19.7938078516809,-33.1924658480079,-30.3541083893641
21543.662,-0.048,0.691,0.721,-27.982,9.765,4.738,19.7938078516809,-33.1924658480079,-30.3541083893641
21564.807,-0.048,0.691,0.721,-27.982,9.765,4.738,20.1391916516914,-32.3476892586859,-31.5266991786782
21622.437,-0.038,0.755,0.65,-29.483,7.052,2.957,20.1391916516914,-32.3476892586859,-31.5266991786782
21664.09,-0.038,0.755,0.65,-29.483,7.052,2.957,20.251199707273,-32.7053909947831,-33.0119808451427
21703.269,-0.039,0.697,0.752,-20.247,-3.473,-0.14,20.251199707273,-32.7053909947831,-33.0119808451427
21763.375,-0.039,0.697,0.752,-20.247,-3.473,-0.14,20.249696110379,-31.382083826193,-32.9338081258551
21782.055,-0.045,0.615,0.797,-21.966,-0.546,-1.163,20.249696110379,-31.382083826193,-32.9338081258551
21860.614,-0.045,0.615,0.797,-50.448,9.821,8.308,20.249696110379,-31.382083826193,-32.9338081258551
21862.989,-0.043,0.615,0.81,-50.448,9.821,8.308,19.7682666689009,-26.9257710091146,-35.0444715466204
21941.445,-0.053,0.538,0.848,-62.785,14.651,12.324,19.7682666689009,-26.9257710091146,-35.0444715466204
21960.538,-0.053,0.538,0.848,-62.785,14.651,12.324,19.0534211065603,-23.4314750294673,-37.3896531252485
22020.218,-0.063,0.522,0.858,-58.931,8.535,8.999,19.0534211065603,-23.4314750294673,-37.3896531252485
22059.822,-0.063,0.522,0.858,-58.931,8.535,8.999,19.7499651328219,-22.2262625363821,-38.3277257566998
22101.052,-0.058,0.394,0.927,-37.454,0.476,-0.14,19.7499651328219,-22.2262625363821,-38.3277257566998
22159.11,-0.058,0.394,0.927,-37.454,0.476,-0.14,20.2122004594147,-20.0590332058658,-39.0312802302882
22179.837,-0.067,0.401,0.931,-36.01,1.391,1.491,20.2122004594147,-20.0590332058658,-39.0312802302882
22258.394,-0.068,0.335,0.95,-19.105,0.38,-2.957,18.3355651274817,-19.8151540082951,-40.5165618967527
22339.224,-0.057,0.289,0.954,-32.965,-3.775,-0.437,18.3355651274817,-19.8151540082951,-40.5165618967527
22356.268,-0.057,0.289,0.954,-32.965,-3.775,-0.437,20.5516484760833,-16.0850104485965,-40.6729073353279
22418.004,-0.05,0.271,0.947,-46.768,-14.953,-1.071,20.5516484760833,-16.0850104485965,-40.6729073353279
22455.56,-0.05,0.271,0.947,-46.768,-14.953,-1.071,20.8962608265884,-14.0375846483763,-41.6109799667792
22496.788,-0.004,0.174,1.044,-49.393,-18.55,-2.598,20.8962608265884,-14.0375846483763,-41.6109799667792
22554.843,-0.004,0.174,1.044,-49.393,-18.55,-2.598,20.0755895478764,-11.3914829676336,-41.2201163703412
22577.621,-0.012,0.157,0.984,-20.072,3.517,2.835,20.0755895478764,-11.3914829676336,-41.2201163703412
22654.127,-0.012,0.157,0.984,-20.072,3.517,2.835,20.8949219583789,-11.151534136083,-40.9074254931907
22656.402,-0.023,0.136,0.998,-12.145,0.468,1.347,20.8949219583789,-11.151534136083,-40.9074254931907
22737.005,-0.02,0.112,1.028,-16.296,-2.043,0.643,20.8949219583789,-11.151534136083,-40.9074254931907
22752.008,-0.02,0.112,1.028,-16.296,-2.043,0.643,20.423170864369,-10.0671504861688,-41.6109799667792
22815.786,-0.015,0.094,1.012,-15.767,-1.754,1.286,20.423170864369,-10.0671504861688,-41.6109799667792
22851.289,-0.015,0.094,1.012,-15.767,-1.754,1.286,20.5404293782375,-8.62472332919909,-40.9855982124784
22894.568,-0.006,0.07,1.01,-16.156,-2.476,2.331,20.5404293782375,-8.62472332919909,-40.9855982124784
22950.576,-0.006,0.07,1.01,-16.156,-2.476,2.331,19.8370516182443,-8.98430480556671,-41.6109799667792
22975.405,-0.012,0.052,1.011,-11.921,-0.726,2.699,19.8370516182443,-8.98430480556671,-41.6109799667792
23047.811,-0.012,0.052,1.011,-11.921,-0.726,2.699,20.5390883613947,-7.42173234734261,-40.9074254931907
23054.19,-0.013,0.027,1.008,-8.662,-1.33,1.916,20.5390883613947,-7.42173234734261,-40.9074254931907
23132.735,-0.009,0.039,1.009,-12.945,-2.056,3.198,20.5390883613947,-7.42173234734261,-40.9074254931907
23147.73,-0.009,0.039,1.009,-12.945,-2.056,3.198,21.2398212411859,-7.4212196909052,-41.1419436510536
23213.564,-0.004,0.013,1.02,-6.505,-2.073,0.507,21.2398212411859,-7.4212196909052,-41.1419436510536
23247.011,-0.004,0.013,1.02,-6.505,-2.073,0.507,21.5874429341121,-6.33734869742835,-41.6109799667792
23292.35,-0.001,0.007,1.018,-5.766,-1.491,1.045,21.5874429341121,-6.33734869742835,-41.6109799667792
23344.25,-0.001,0.007,1.018,-5.766,-1.491,1.045,20.5358367603717,-5.01540861267137,-40.9074254931907
23371.137,0.001,0.002,1.019,-4.445,-1.15,0.428,20.5358367603717,-5.01540861267137,-40.9074254931907
23443.532,0.001,0.002,1.019,-4.445,-1.15,0.428,21.1189455897585,-5.97622925174853,-41.6891526860668
23451.96,0.004,-0.005,1.005,-4.427,-1.233,0.004,21.1189455897585,-5.97622925174853,-41.6891526860668
23530.51,0.009,-0.022,1.031,-6.383,-3.373,-0.319,21.1189455897585,-5.97622925174853,-41.6891526860668
23543.453,0.009,-0.022,1.031,-6.383,-3.373,-0.319,21.4674630844411,-4.29180263747867,-41.6891526860668
23611.34,0.009,-0.017,1.022,-2.625,-0.905,0.428,21.4674630844411,-4.29180263747867,-41.6891526860668
23642.735,0.009,-0.017,1.022,-2.625,-0.905,0.428,21.4696595266066,-4.65377651055415,-41.2201163703412
23690.121,0.008,-0.024,1.007,-1.168,0.113,0.389,21.4696595266066,-4.65377651055415,-41.2201163703412
23739.967,0.008,-0.024,1.007,-1.168,0.113,0.389,21.1156918401023,-5.25296504751409,-42.3145344403676
23768.906,0.008,-0.017,1.019,-0.8,-0.787,0.42,21.1156918401023,-5.25296504751409,-42.3145344403676
23839.257,0.008,-0.017,1.019,-0.8,-0.787,0.42,21.4700239888258,-5.97640013722766,-41.6109799667792
23849.733,0.011,-0.032,1.019,0.091,0.28,0.275,21.4700239888258,-5.97640013722766,-41.6109799667792
23928.287,0.007,-0.019,1.024,-0.03,0.24,0.883,21.4700239888258,-5.97640013722766,-41.6109799667792
23939.181,0.007,-0.019,1.024,-0.03,0.24,0.883,21.8208994314083,-5.61579334798524,-41.454634528204
24007.071,0.007,-0.019,1.024,2.034,1.645,0.411,21.8208994314083,-5.61579334798524,-41.454634528204
24009.446,0.004,-0.025,1.011,2.034,1.645,0.411,21.8208994314083,-5.61579334798524,-41.454634528204
24036.423,0.004,-0.025,1.011,2.034,1.645,0.411,21.8187029892429,-5.25381947490976,-41.9236708439296
24087.914,0.002,-0.019,1.011,3.023,1.413,0.656,21.8187029892429,-5.25381947490976,-41.9236708439296
24135.713,0.002,-0.019,1.011,3.023,1.413,0.656,21.8196380931161,-5.73525510732314,-41.845498124642
24166.698,0.003,-0.01,1.039,2.143,0.126,0.997,21.8196380931161,-5.73525510732314,-41.845498124642
24234.999,0.003,-0.01,1.039,2.143,0.126,0.997,20.8854912410957,-5.01472507075484,-41.2201163703412
24247.526,0.001,-0.01,1.008,2.817,2.209,0.805,20.8854912410957,-5.01472507075484,-41.2201163703412
24326.078,0,-0.012,1.013,0.844,0.529,0.258,20.8854912410957,-5.01472507075484,-41.2201163703412
24334.921,0,-0.012,1.013,0.844,0.529,0.258,21.8164661706438,-4.65138411384628,-42.3145344403676
24404.863,0.003,-0.015,1.02,-0.993,-0.901,-0.126,21.8164661706438,-4.65138411384628,-42.3145344403676
24432.16,0.003,-0.015,1.02,-0.993,-0.901,-0.126,20.5346561749468,-5.61579334798524,-41.454634528204
24485.699,0,-0.014,1.011,1.995,0.236,0.083,20.5346561749468,-5.61579334798524,-41.454634528204
24531.446,0,-0.014,1.011,1.995,0.236,0.083,21.4685182432986,-6.33615249907441,-42.1581890017924
24564.472,0.006,-0.029,1.009,5.298,-0.704,2.708,21.4685182432986,-6.33615249907441,-42.1581890017924
24630.722,0.006,-0.029,1.009,5.298,-0.704,2.708,22.1738065874719,-7.17990377552155,-41.454634528204
24643.25,0.004,0.02,1.031,11.541,-1.255,11.322,22.1738065874719,-7.17990377552155,-41.454634528204
24723.86,-0.002,0.052,1.018,0.573,2.458,7.94,22.1738065874719,-7.17990377552155,-41.454634528204
24728.604,-0.002,0.052,1.018,0.573,2.458,7.94,21.821467924429,-6.45766488416191,-41.6109799667792
24802.643,-0.025,0.038,0.99,7.538,3.294,-0.958,21.821467924429,-6.45766488416191,-41.6109799667792
24827.886,-0.025,0.038,0.99,7.538,3.294,-0.958,21.2404715613905,-7.90248443783945,-41.1419436510536
24883.474,-0.023,0.043,1.041,8.155,-2.476,-2.935,21.2404715613905,-7.90248443783945,-41.1419436510536
24927.168,-0.023,0.043,1.041,8.155,-2.476,-2.935,20.5360364939065,-7.90077558304812,-41.9236708439296
24962.25,0.017,0.05,0.979,4.178,-2.83,-1.833,20.5360364939065,-7.90077558304812,-41.9236708439296
25026.457,0.017,0.05,0.979,4.178,-2.83,-1.833,21.4704288274787,-7.53948525188917,-42.0800162825048
25041.032,0.055,0.015,1.05,5.057,-4.733,-3.171,21.4704288274787,-7.53948525188917,-42.0800162825048
25121.635,0.028,-0.009,1.046,7.253,2.677,-1.631,21.4704288274787,-7.53948525188917,-42.0800162825048
25124.328,0.028,-0.009,1.046,7.253,2.677,-1.631,20.7705088479432,-8.14157884199437,-41.845498124642
25200.421,-0.01,0.037,1.043,6.483,6.825,5.315,20.7705088479432,-8.14157884199437,-41.845498124642
25223.616,-0.01,0.037,1.043,6.483,6.825,5.315,21.1226860052516,-7.90197178140205,-41.3764618089164
25279.199,-0.026,0.087,1.023,4.615,8.798,7.38,21.1226860052516,-7.90197178140205,-41.3764618089164
25322.898,-0.026,0.087,1.023,4.615,8.798,7.38,20.8898394517264,-8.86433038979141,-41.454634528204
25360.025,-0.05,0.05,0.962,-0.048,8.268,0.905,20.8898394517264,-8.86433038979141,-41.454634528204
25422.178,-0.05,0.05,0.962,-0.048,8.268,0.905,20.8881722004646,-8.26223679968621,-41.6891526860668
25438.807,-0.039,0.069,1.004,-0.083,1.36,-0.726,20.8881722004646,-8.26223679968621,-41.6891526860668
25519.417,-0.018,0.081,1.017,-3.263,0.266,-0.866,20.0708747263931,-7.90231355236032,-41.2201163703412
25598.19,-0.032,0.075,0.995,-5.726,1.85,-3.36,20.0708747263931,-7.90231355236032,-41.2201163703412
25619.335,-0.032,0.075,0.995,-5.726,1.85,-3.36,20.7694908425694,-8.86227976404181,-42.3927071596552
25676.967,-0.031,0.05,1.014,-6.868,-0.42,-10.828,20.7694908425694,-8.86227976404181,-42.3927071596552
25718.62,-0.031,0.05,1.014,-6.868,-0.42,-10.828,19.1313169846679,-7.17853669168848,-42.0800162825048
25757.8,-0.027,0.004,1.006,-11.064,0.428,-13.081,19.1313169846679,-7.17853669168848,-42.0800162825048
25817.908,-0.027,0.004,1.006,-11.064,0.428,-13.081,20.5350195628494,-7.77994673987715,-42.1581890017924
25836.585,-0.04,0.042,1.023,-5.197,-0.612,-6.081,20.5350195628494,-7.77994673987715,-42.1581890017924
25915.138,-0.017,0.018,1.032,-4.847,-1.977,-14.756,18.4306244813103,-7.41951083611387,-41.9236708439296
25995.966,-0.027,0.025,1.006,0.927,1.063,-22.15,18.4306244813103,-7.41951083611387,-41.9236708439296
26015.061,-0.027,0.025,1.006,0.927,1.063,-22.15,18.6686342943553,-9.2252789499921,-41.454634528204
26074.738,-0.014,-0.002,1.034,3.701,-4.414,-32.497,18.6686342943553,-9.2252789499921,-41.454634528204
26114.342,-0.014,-0.002,1.034,3.701,-4.414,-32.497,19.4862983792794,-9.2247662935547,-41.6891526860668
26153.52,-0.028,0.033,0.985,0.568,-7.341,-33.613,19.4862983792794,-9.2247662935547,-41.6891526860668
26213.626,-0.028,0.033,0.985,0.568,-7.341,-33.613,19.370992974658,-10.4279281608903,-41.6891526860668
26234.354,-0.019,0.055,1.025,-10.591,-13.12,-33.341,19.370992974658,-10.4279281608903,-41.6891526860668
26310.863,-0.019,0.055,1.025,-10.591,-13.12,-33.341,18.4358281172637,-10.4280990463694,-41.6109799667792
26313.139,0.015,-0.004,1.025,-0.936,-7.857,-40.044,18.4358281172637,-10.4280990463694,-41.6109799667792
26393.735,0.028,0.001,1.026,-1.251,-3.854,-49.603,18.4358281172637,-10.4280990463694,-41.6109799667792
26410.786,0.028,0.001,1.026,-1.251,-3.854,-49.603,19.0221481712398,-13.5547819321299,-42.3145344403676
26472.517,-0.007,0.093,1.012,21.424,-0.59,-49.84,19.0221481712398,-13.5547819321299,-42.3145344403676
26510.071,-0.007,0.093,1.012,21.424,-0.59,-49.84,16.5671624307869,-13.5551237030881,-42.1581890017924
26551.302,0.043,0.015,1.014,-6.02,-8.592,-60.108,16.5671624307869,-13.5551237030881,-42.1581890017924
26609.359,0.043,0.015,1.014,-6.02,-8.592,-60.108,17.387428870846,-14.6381402691693,-42.0800162825048
26632.137,0.028,0.04,1.004,-12.573,-7.761,-60.72,17.387428870846,-14.6381402691693,-42.0800162825048
26706.591,0.028,0.04,1.004,-12.573,-7.761,-60.72,14.2280069885925,-15.4783029505546,-43.0180889139561
26710.917,0.059,-0.045,1.047,-15.881,-1.824,-62.65,14.2280069885925,-15.4783029505546,-43.0180889139561
26789.467,0.034,-0.024,1.07,2.817,11.125,-49.494,14.2280069885925,-15.4783029505546,-43.0180889139561
26806.52,0.034,-0.024,1.07,2.817,11.125,-49.494,13.528941360063,-16.0809091970973,-42.5490525982304
26870.304,0.012,-0.018,0.964,4.186,15.242,-46.383,13.528941360063,-16.0809091970973,-42.5490525982304
26905.807,0.012,-0.018,0.964,4.186,15.242,-46.383,11.0735890087575,-16.4416868718188,-42.627225317518
26949.086,0,-0.015,1.019,-4.528,5.81,-41.606,11.0735890087575,-16.4416868718188,-42.627225317518
27005.08,0,-0.015,1.019,-4.528,5.81,-41.606,9.66634467430113,-17.6414310295718,-44.1906797032701
27027.86,-0.015,0,1.034,0.297,7.735,-40.871,9.66634467430113,-17.6414310295718,-44.1906797032701
27102.312,-0.015,0,1.034,0.297,7.735,-40.871,7.21392198686627,-17.6433107698422,-43.3307797911065
27108.696,-0.021,-0.004,1.014,6.536,10.416,-43.859,7.21392198686627,-17.6433107698422,-43.3307797911065
27187.248,-0.045,0,0.96,3.57,5.678,-39.09,7.21392198686627,-17.6433107698422,-43.3307797911065
27202.244,-0.045,0,0.96,3.57,5.678,-39.09,6.04412004675082,-18.9654217400783,-43.9561615454073
27268.081,-0.043,-0.024,1.019,3.408,-2.594,-36.321,6.04412004675082,-18.9654217400783,-43.9561615454073
27301.525,-0.043,-0.024,1.019,3.408,-2.594,-36.321,6.04375343589825,-19.3258576438416,-44.1906797032701
27346.865,-0.04,0.001,1.013,4.361,-1.268,-31.653,6.04375343589825,-19.3258576438416,-44.1906797032701
27400.816,-0.04,0.001,1.013,4.361,-1.268,-31.653,4.76169903296621,-20.5305574804894,-43.4871252296817
27425.654,-0.029,0.017,1.001,-1.225,-5.971,-28.358,4.76169903296621,-20.5305574804894,-43.4871252296817
27498.053,-0.029,0.017,1.001,-1.225,-5.971,-28.358,4.99007194929324,-18.3633281499731,-44.1906797032701
27506.478,-0.02,-0.006,1.05,-12.477,-12.215,-28.196,4.99007194929324,-18.3633281499731,-44.1906797032701
27585.031,-0.012,-0.023,1.012,-13.142,-9.183,-27.23,4.99007194929324,-18.3633281499731,-44.1906797032701
27597.974,-0.012,-0.023,1.012,-13.142,-9.183,-27.23,4.28901283508309,-18.9647381981618,-44.2688524225577
27663.815,-0.012,-0.023,1.012,-1.386,-7.406,-24.154,4.28901283508309,-18.9647381981618,-44.2688524225577
27666.19,0.014,-0.075,1.016,-1.386,-7.406,-24.154,4.28901283508309,-18.9647381981618,-44.2688524225577
27697.268,0.014,-0.075,1.016,-1.386,-7.406,-24.154,3.35197884425894,-17.1605080535958,-44.0343342646949
27744.659,0.02,-0.044,1.025,-6.514,-4.519,-24.832,3.35197884425894,-17.1605080535958,-44.0343342646949
27796.559,0.02,-0.044,1.025,-6.514,-4.519,-24.832,3.0009811980589,-17.6412601440926,-44.2688524225577
27823.446,0.028,-0.054,1.003,0.651,1.413,-23.533,3.0009811980589,-17.6412601440926,-44.2688524225577
27893.793,0.028,-0.054,1.003,0.651,1.413,-23.533,2.6489666208017,-18.0011833914185,-44.7378887382834
27902.219,0.028,-0.054,1.003,3.885,-0.901,-17.351,2.6489666208017,-18.0011833914185,-44.7378887382834
27904.594,0.015,-0.036,1.002,3.885,-0.901,-17.351,2.6489666208017,-18.0011833914185,-44.7378887382834
27982.831,0.02,-0.036,1.026,1.172,-2.887,-16.196,2.6489666208017,-18.0011833914185,-44.7378887382834
27993.726,0.02,-0.036,1.026,1.172,-2.887,-16.196,1.94904664126624,-18.6032769815237,-44.5033705804206
28061.616,0.013,-0.062,1.051,-1.903,-0.17,-15.995,1.94904664126624,-18.6032769815237,-44.5033705804206
28093.013,0.013,-0.062,1.051,-1.903,-0.17,-15.995,1.12503871139745,-16.4360476510074,-45.206925054009
28142.447,0.011,-0.028,1.011,-8.063,-2.126,-7.752,1.12503871139745,-16.4360476510074,-45.206925054009
28192.297,0.011,-0.028,1.011,-8.063,-2.126,-7.752,1.94766417367316,-18.0013542768976,-44.6597160189958
28221.225,0.033,-0.046,0.988,0.765,-2.935,-8.321,1.94766417367316,-18.0013542768976,-44.6597160189958
28289.53,0.033,-0.046,0.988,0.765,-2.935,-8.321,3.35299362668279,-18.9643964272035,-44.425197861133
28300.007,0.039,-0.047,1.027,3.762,-6.015,-6.168,3.35299362668279,-18.9643964272035,-44.425197861133
28380.618,0.046,-0.051,1.03,4.558,-3.583,-4.248,3.35299362668279,-18.9643964272035,-44.425197861133
28389.461,0.046,-0.051,1.03,4.558,-3.583,-4.248,2.18030562208031,-18.3612775242235,-45.1287523347214
28459.398,0.035,-0.028,1.019,4.313,2.716,-1.583,2.18030562208031,-18.3612775242235,-45.1287523347214
28488.747,0.035,-0.028,1.019,4.313,2.716,-1.583,1.59532336199701,-18.9621749159748,-45.4414432118718
28538.184,0.035,-0.028,1.019,4.725,4.738,-1.815,1.59532336199701,-18.9621749159748,-45.4414432118718
28540.56,0.026,-0.019,1.023,4.725,4.738,-1.815,1.59532336199701,-18.9621749159748,-45.4414432118718
28585.988,0.026,-0.019,1.023,4.725,4.738,-1.815,1.47957274228911,-18.3617901806609,-44.8942341768586
28619.017,0.023,-0.033,1.01,0.848,1.43,-0.551,1.47957274228911,-18.3617901806609,-44.8942341768586
28685.272,0.023,-0.033,1.01,0.848,1.43,-0.551,2.30069460767086,-18.6037896379611,-44.2688524225577
28697.799,0.043,-0.061,1.017,-0.459,0.56,3.613,2.30069460767086,-18.6037896379611,-44.2688524225577
28778.409,0.027,-0.028,1.015,-0.07,-1.264,13.216,2.30069460767086,-18.6037896379611,-44.2688524225577
28785.203,0.027,-0.028,1.015,-0.07,-1.264,13.216,3.35388942843909,-18.3638408064105,-43.9561615454073
28857.189,0.025,-0.028,0.989,2.555,-0.105,16.563,3.35388942843909,-18.3638408064105,-43.9561615454073
28884.483,0.025,-0.028,0.989,2.555,-0.105,16.563,3.23565650858038,-18.2428410777604,-44.2688524225577
28935.973,0.025,-0.062,1.021,4.313,-1.338,17.819,3.23565650858038,-18.2428410777604,-44.2688524225577
28981.718,0.025,-0.062,1.021,4.313,-1.338,17.819,4.99104742960013,-19.0852252703745,-44.1906797032701
29016.798,0.039,0.028,1.027,7.756,0.345,36.75,4.99104742960013,-19.0852252703745,-44.1906797032701
29081.005,0.039,0.028,1.027,7.756,0.345,36.75,5.3423691615858,-19.6866353185632,-44.2688524225577
29095.582,0.037,-0.024,0.966,2.73,3.806,31.045,5.3423691615858,-19.6866353185632,-44.2688524225577
29174.134,0.029,-0.018,1.053,7.008,-6.545,27.203,5.3423691615858,-19.6866353185632,-44.2688524225577
29180.927,0.029,-0.018,1.053,7.008,-6.545,27.203,6.39454705129685,-19.3258576438416,-44.1906797032701
29254.967,0.031,0.014,1.038,4.493,-2.813,26.048,6.39454705129685,-19.3258576438416,-44.1906797032701
29278.162,0.031,0.014,1.038,4.493,-2.813,26.048,7.56605554479102,-19.6878315169171,-43.7216433875445
29333.741,0.045,0.005,0.994,-1.754,0.468,29.583,7.56605554479102,-19.6878315169171,-43.7216433875445
29377.445,0.045,0.005,0.994,-1.754,0.468,29.583,9.20199473272679,-19.0860796977702,-43.7998161068321
29414.572,0.051,-0.021,1.048,1.859,-2.226,34.523,9.20199473272679,-19.0860796977702,-43.7998161068321
29476.727,0.051,-0.021,1.048,1.859,-2.226,34.523,10.2552310042453,-18.2450625889892,-43.2526070718189
29493.357,0.035,-0.02,1.017,-2.695,6.068,35.367,10.2552310042453,-18.2450625889892,-43.2526070718189
29571.916,0.021,-0.052,0.989,-15.207,1.365,32.112,10.2552310042453,-18.2450625889892,-43.2526070718189
29576.661,0.021,-0.052,0.989,-15.207,1.365,32.112,10.3656547100656,-16.7985341805203,-44.5033705804206
29652.752,0.047,-0.026,1.02,5.976,-4.698,44.935,10.3656547100656,-16.7985341805203,-44.5033705804206
29673.898,0.047,-0.026,1.02,5.976,-4.698,44.935,11.6575118127167,-17.1625586793454,-43.0962616332437
29731.525,0.045,-0.008,1.046,12.586,1.798,53.147,11.6575118127167,-17.1625586793454,-43.0962616332437
29773.178,0.045,-0.008,1.046,12.586,1.798,53.147,14.2313000403657,-17.2835584079955,-42.7835707560933
29810.311,0.018,0.007,1,13.107,8.942,57.557,14.2313000403657,-17.2835584079955,-42.7835707560933
29872.467,0.018,0.007,1,13.107,8.942,57.557,14.5820543536473,-16.2015671547891,-42.3927071596552
29891.146,0.029,-0.058,0.989,-4.939,0.083,59.836,14.5820543536473,-16.2015671547891,-42.3927071596552
29969.701,0.026,0.007,1.112,-36.312,-5.026,59.766,14.5820543536473,-16.2015671547891,-42.3927071596552
29972.393,0.026,0.007,1.112,-36.312,-5.026,59.766,15.9777065335054,-12.9511503727124,-43.2526070718189
30048.471,0.026,0.007,1.112,1.198,18.694,43.421,15.9777065335054,-12.9511503727124,-43.2526070718189
30050.846,0.011,-0.011,0.931,1.198,18.694,43.421,15.9777065335054,-12.9511503727124,-43.2526070718189
30069.624,0.011,-0.011,0.931,1.198,18.694,43.421,16.2096179831574,-11.5073561319097,-43.2526070718189
30129.306,0,-0.079,1.033,9.476,5.499,35.091,16.2096179831574,-11.5073561319097,-43.2526070718189
30168.913,0,-0.079,1.033,9.476,5.499,35.091,16.2090887922536,-11.7474758489394,-43.4871252296817
30208.09,-0.014,-0.027,1.046,10.78,4.952,40.425,16.2090887922536,-11.7474758489394,-43.4871252296817
30268.195,-0.014,-0.027,1.046,10.78,4.952,40.425,15.5118944457874,-12.4714235950904,-42.5490525982304
30288.921,-0.023,-0.029,1.03,12.14,8.553,39.186,15.5118944457874,-12.4714235950904,-42.5490525982304
30367.477,-0.032,-0.007,0.986,-3.574,10.373,43.036,16.5581758542735,-10.0633910056278,-43.3307797911065
30446.246,-0.05,-0.017,1.027,0.616,7.306,44.568,16.5581758542735,-10.0633910056278,-43.3307797911065
30465.349,-0.05,-0.017,1.027,0.616,7.306,44.568,16.5617154619151,-9.945296330123,-42.3145344403676
30527.079,-0.073,0.037,1.005,-4.309,4.283,41.361,16.5617154619151,-9.945296330123,-42.3145344403676
30564.631,-0.073,0.037,1.005,-4.309,4.283,41.361,17.7283422566082,-10.0639036620652,-43.0962616332437
30605.862,-0.062,-0.042,0.981,3.473,-0.07,27.606,17.7283422566082,-10.0639036620652,-43.0962616332437
30663.92,-0.062,-0.042,0.981,3.473,-0.07,27.606,17.260985121246,-8.86193799308355,-42.5490525982304
30684.65,-0.052,-0.037,1.029,0.525,-0.988,31.031,17.260985121246,-8.86193799308355,-42.5490525982304
30763.212,-0.052,-0.037,1.029,0.525,-0.988,31.031,17.0252928796674,-8.13952821624477,-42.7835707560933
30765.487,-0.059,0.002,1.043,0.406,3.395,35.21,17.0252928796674,-8.13952821624477,-42.7835707560933
30844.031,-0.081,0.058,1.003,0.218,5.092,30.528,17.0252928796674,-8.13952821624477,-42.7835707560933
30861.075,-0.081,0.058,1.003,0.218,5.092,30.528,18.0775940473126,-6.81707547505039,-42.3145344403676
30924.859,-0.058,-0.031,1.007,-7.708,-2.428,15.207,18.0775940473126,-6.81707547505039,-42.3145344403676
30960.357,-0.058,-0.031,1.007,-7.708,-2.428,15.207,18.430054913973,-7.4191690651556,-42.0800162825048
31003.649,-0.074,0.02,1.005,-2.104,-3.915,19.849,18.430054913973,-7.4191690651556,-42.0800162825048
31059.649,-0.074,0.02,1.005,-2.104,-3.915,19.849,18.6612331419198,-6.69624663187943,-42.5490525982304
31082.436,-0.056,-0.031,1.025,0.525,-1.133,16.266,18.6612331419198,-6.69624663187943,-42.5490525982304
31158.93,-0.056,-0.031,1.025,0.525,-1.133,16.266,19.0117419736497,-6.6960757464003,-42.627225317518
31163.256,-0.064,0.009,1.01,-7.105,1.535,19.936,19.0117419736497,-6.6960757464003,-42.627225317518
31241.816,-0.079,-0.033,1.025,1.115,-0.875,13.483,19.0117419736497,-6.6960757464003,-42.627225317518
31256.812,-0.079,-0.033,1.025,1.115,-0.875,13.483,19.479591146432,-4.89287091470907,-41.9236708439296
31320.605,-0.058,-0.038,1.031,-6.418,-0.446,10.675,19.479591146432,-4.89287091470907,-41.9236708439296
31356.102,-0.058,-0.038,1.031,-6.418,-0.446,10.675,19.3580641004834,-3.80814549383655,-42.7835707560933
31401.437,-0.055,-0.024,1.02,-4.265,3.648,11.27,19.3580641004834,-3.80814549383655,-42.7835707560933
31455.382,-0.055,-0.024,1.02,-4.265,3.648,11.27,19.4781672280887,-4.89201648731341,-42.3145344403676
31480.22,-0.08,-0.008,1.015,1.675,3.718,10.11,19.4781672280887,-4.89201648731341,-42.3145344403676
31554.669,-0.08,-0.008,1.015,1.675,3.718,10.11,19.8237157567836,-2.48449655428823,-42.8617434753809
31558.997,-0.088,-0.021,0.983,3.045,2.143,6.094,19.8237157567836,-2.48449655428823,-42.8617434753809
31639.607,-0.073,-0.043,1.014,-5.429,-3.11,2.362,19.8237157567836,-2.48449655428823,-42.8617434753809
31652.552,-0.073,-0.043,1.014,-5.429,-3.11,2.362,20.1758907654587,-3.92794902413271,-43.0180889139561
31718.387,-0.07,-0.039,1.009,1.05,-3.797,1.916,20.1758907654587,-3.92794902413271,-43.0180889139561
31751.831,-0.07,-0.039,1.009,1.05,-3.797,1.916,19.7067027244668,-2.84510334353065,-43.0180889139561
31797.169,-0.071,-0.001,1.005,-0.59,-2.918,1.045,19.7067027244668,-2.84510334353065,-43.0180889139561
31851.117,-0.071,-0.001,1.005,-0.59,-2.918,1.045,19.8270098828735,-3.44822224651066,-42.3145344403676
31878.005,-0.065,-0.055,1.028,3.801,-3.736,-1.526,19.8270098828735,-3.44822224651066,-42.3145344403676
31948.356,-0.065,-0.055,1.028,3.801,-3.736,-1.526,20.5278638919656,-4.16909405403723,-42.7835707560933
31956.783,-0.053,-0.032,1.01,-2.502,-3.325,-0.691,20.5278638919656,-4.16909405403723,-42.7835707560933
32035.336,-0.053,-0.032,1.01,-1.697,-3.731,-1.071,20.5278638919656,-4.16909405403723,-42.7835707560933
32037.711,-0.046,-0.02,1.024,-1.697,-3.731,-1.071,20.5278638919656,-4.16909405403723,-42.7835707560933
32048.289,-0.046,-0.02,1.024,-1.697,-3.731,-1.071,20.1766239871638,-3.20707721660614,-42.5490525982304
32116.176,-0.045,-0.046,1.011,0.651,-1.706,-2.336,20.1766239871638,-3.20707721660614,-42.5490525982304
32147.57,-0.045,-0.046,1.011,0.651,-1.706,-2.336,20.4128857960798,-3.92982876440318,-42.1581890017924
32194.961,-0.05,-0.035,1.028,1.491,-1.631,-1.868,20.4128857960798,-3.92982876440318,-42.1581890017924
32246.859,-0.05,-0.035,1.028,1.491,-1.631,-1.868,20.7665676245987,-4.1719991071825,-41.454634528204
32273.737,-0.05,-0.035,1.028,-1.12,-0.831,-1.701,20.7665676245987,-4.1719991071825,-41.454634528204
32276.112,-0.042,-0.032,1.009,-1.12,-0.831,-1.701,20.7665676245987,-4.1719991071825,-41.454634528204
32344.106,-0.042,-0.032,1.009,-1.12,-0.831,-1.701,20.1797566075192,-3.20895695687661,-41.6891526860668
32354.584,-0.042,-0.033,1.027,0.083,-1.295,-0.555,20.1797566075192,-3.20895695687661,-41.6891526860668
32433.137,-0.042,-0.023,1.013,-2.695,-0.63,-0.721,20.1797566075192,-3.20895695687661,-41.6891526860668
32444.03,-0.042,-0.023,1.013,-2.695,-0.63,-0.721,20.1765825364135,-3.80814549383655,-42.7835707560933
32513.971,-0.042,-0.047,1.012,-1.448,-0.021,-2.266,20.1765825364135,-3.80814549383655,-42.7835707560933
32543.317,-0.042,-0.047,1.012,-1.448,-0.021,-2.266,20.4099572065258,-3.44719693363586,-42.7835707560933
32592.757,-0.044,-0.049,1.007,-1.929,0.258,-2.725,20.4099572065258,-3.44719693363586,-42.7835707560933
32640.557,-0.044,-0.049,1.007,-1.929,0.258,-2.725,20.1775994674707,-3.92897433700751,-42.5490525982304
32671.533,-0.035,-0.057,1.027,-2.931,-1.155,-2.778,20.1775994674707,-3.92897433700751,-42.5490525982304
32739.835,-0.035,-0.057,1.027,-2.931,-1.155,-2.778,20.8789019145992,-3.92880345152838,-42.627225317518
32752.363,-0.036,-0.045,1.023,-2.725,-0.336,-1.71,20.8789019145992,-3.92880345152838,-42.627225317518
32830.918,-0.047,-0.061,1.004,-0.848,0.765,-1.688,20.8789019145992,-3.92880345152838,-42.627225317518
32839.763,-0.047,-0.061,1.004,-0.848,0.765,-1.688,21.2289240804924,-2.72615424063016,-42.3927071596552
32909.704,-0.04,-0.045,1.004,-0.161,-0.083,-0.94,21.2289240804924,-2.72615424063016,-42.3927071596552
32937.001,-0.04,-0.045,1.004,-0.161,-0.083,-0.94,20.4120325193904,-3.08778634274738,-42.0800162825048
32990.528,-0.033,-0.063,1.032,-0.393,-0.634,-1.71,20.4120325193904,-3.08778634274738,-42.0800162825048
33036.279,-0.033,-0.063,1.032,-0.393,-0.634,-1.71,20.5284749100532,-3.56836754776509,-42.3927071596552
33069.31,-0.041,-0.055,1.015,-0.577,0.551,-0.958,20.5284749100532,-3.56836754776509,-42.3927071596552
33135.567,-0.041,-0.055,1.015,-0.577,0.551,-0.958,20.8775608977564,-2.72581246967189,-42.5490525982304
33148.095,-0.038,-0.07,1.02,-1.085,0.603,-1.207,20.8775608977564,-2.72581246967189,-42.5490525982304
33228.703,-0.037,-0.06,1.02,-0.455,0.813,-0.708,20.8775608977564,-2.72581246967189,-42.5490525982304
