,time,accX,accY,accZ,gyroX,gyroY,gyroZ,magX,magY,magZ,roll,pitch,yaw
0,8267.488,0.345223031026253,0.345223031026253,0.36484303102625304,0.008040386130458366,0.008040386130458366,0.007429520892260351,21.9392534805679,22.5242346663346,22.5242346663346,0.08266034229896217,0.12265713459277158,0.0059563733875591255
1,8313.232,0.345223031026253,0.345223031026253,0.36484303102625304,0.008040386130458366,0.008040386130458366,0.007429520892260351,21.9392534805679,22.5242346663346,22.5242346663346,0.13395676078356591,0.18320305983950189,0.03151736678886061
2,8346.271,0.345223031026253,0.345223031026253,0.36484303102625304,0.008040386130458366,0.008040386130458366,0.007429520892260351,21.9392534805679,22.5242346663346,22.5242346663346,0.15481507624979704,0.2553027961132073,0.10851487759583335
3,8412.517,0.345223031026253,0.345223031026253,0.36484303102625304,0.008040386130458366,0.008040386130458366,0.007429520892260351,21.9392534805679,22.5242346663346,22.5242346663346,0.17473036998154012,0.3206674923550751,0.17818771171504327
4,8425.046,0.345223031026253,0.345223031026253,0.36484303102625304,0.008040386130458366,0.008040386130458366,0.007429520892260351,21.9392534805679,22.5242346663346,22.5242346663346,0.16525173288179443,0.38777327060247685,0.219799114023983
5,8505.658,0.345223031026253,0.345223031026253,0.36484303102625304,0.008040386130458366,0.008040386130458366,0.007429520892260351,21.9392534805679,22.5242346663346,22.5242346663346,0.13535165855163966,0.4255368528189405,0.24849875095512808
6,8510.401,0.345223031026253,0.345223031026253,0.36484303102625304,0.008040386130458366,0.008040386130458366,0.007429520892260351,21.9392534805679,22.5242346663346,22.5242346663346,0.10647438404860793,0.46164097774148244,0.2598880965178922
7,8584.438,0.345223031026253,0.345223031026253,0.36484303102625304,0.008040386130458366,0.008040386130458366,0.007429520892260351,21.9392534805679,22.5242346663346,22.5242346663346,0.1368545672210813,0.5107153451438633,0.1957794299091822
8,8609.682,0.345223031026253,0.345223031026253,0.36484303102625304,0.008040386130458366,0.008040386130458366,0.007429520892260351,21.9392534805679,22.5242346663346,22.5242346663346,0.1659972030422569,0.5577072117905942,0.1409113611950348
9,8663.22,0.345223031026253,0.345223031026253,0.36484303102625304,0.008040386130458366,0.008040386130458366,0.007429520892260351,21.9392534805679,22.5242346663346,22.5242346663346,0.2033211134842917,0.6326156439850683,0.1957337636946935
10,8708.967,0.345223031026253,0.345223031026253,0.36484303102625304,0.008040386130458366,0.008040386130458366,0.007429520892260351,21.9392534805679,22.5242346663346,22.5242346663346,0.23923050207726324,0.7042388547566875,0.2541614418623551
11,8744.057,0.345223031026253,0.345223031026253,0.36484303102625304,0.008040386130458366,0.008040386130458366,0.007429520892260351,21.9392534805679,22.5242346663346,22.5242346663346,0.23905937088893658,0.8530555994751503,0.4934739778052239
12,8808.256,0.345223031026253,0.345223031026253,0.36484303102625304,0.008040386130458366,0.008040386130458366,0.007429520892260351,21.9392534805679,22.5242346663346,22.5242346663346,0.24094306802990426,0.9954709082866603,0.7739453397428299
13,8822.833,0.345223031026253,0.345223031026253,0.36484303102625304,0.008040386130458366,0.008040386130458366,0.007429520892260351,21.9392534805679,22.5242346663346,22.5242346663346,0.360448290943648,1.2013023825494142,0.6091548373497244
14,8903.439,0.345223031026253,0.345223031026253,0.36484303102625304,0.008040386130458366,0.008040386130458366,0.007429520892260351,21.9392534805679,22.5242346663346,22.5242346663346,0.42303255222889047,1.3999341509497862,0.40784961099318234
15,8906.132,0.345223031026253,0.345223031026253,0.36484303102625304,0.008040386130458366,0.008040386130458366,0.007429520892260351,21.9392534805679,22.5242346663346,22.5242346663346,0.4823361446978165,1.590342631157713,0.211731751524238
16,8982.222,0.345223031026253,0.345223031026253,0.36484303102625304,0.008040386130458366,0.008040386130458366,0.007429520892260351,21.9392534805679,22.5242346663346,22.5242346663346,0.39412402334546465,1.914415169546147,0.7735812381566982
17,9005.417,0.345223031026253,0.345223031026253,0.36484303102625304,0.008040386130458366,0.008040386130458366,0.007429520892260351,21.9392534805679,22.5242346663346,22.5242346663346,0.3188973786142582,2.2247565283866226,1.466926374031736
18,9061.009,0.345223031026253,0.345223031026253,0.36484303102625304,0.008040386130458366,0.008040386130458366,0.007429520892260351,21.9392534805679,22.5242346663346,22.5242346663346,0.38891489656940875,2.6969788210401306,1.1941241951646078
19,9104.707,0.345223031026253,0.345223031026253,0.36484303102625304,0.008040386130458366,0.008040386130458366,0.007429520892260351,21.9392534805679,22.5242346663346,22.5242346663346,0.4472042721540935,3.1479657501690026,0.799638927380787
20,9141.844,0.345223031026253,0.345223031026253,0.36484303102625304,0.008040386130458366,0.008040386130458366,0.007429520892260351,21.9392534805679,22.5242346663346,22.5242346663346,0.45181210347709044,3.377157634726899,0.9962342449208171
21,9203.988,0.345223031026253,0.345223031026253,0.36484303102625304,0.008040386130458366,0.008040386130458366,0.007429520892260351,21.9392534805679,22.5242346663346,22.5242346663346,0.4555573794579839,3.5957784992402892,1.1778620425354254
22,9220.616,0.345223031026253,0.345223031026253,0.36484303102625304,0.008040386130458366,0.008040386130458366,0.007429520892260351,21.9392534805679,22.5242346663346,22.5242346663346,0.2958293756703725,3.7617856217629404,1.9651376261027342
23,9299.171,0.345223031026253,0.345223031026253,0.36484303102625304,0.008040386130458366,0.008040386130458366,0.007429520892260351,21.9392534805679,22.5242346663346,22.5242346663346,0.16744673766087326,4.187479468545411,2.830268497454119
24,9301.546,0.345223031026253,0.345223031026253,0.36484303102625304,0.008040386130458366,0.008040386130458366,0.007429520892260351,21.9392534805679,22.5242346663346,22.5242346663346,0.05351824425501907,4.534557122477905,3.1856218793056383
25,9380.01,0.345223031026253,0.345223031026253,0.36484303102625304,0.008040386130458366,0.008040386130458366,0.007429520892260351,21.9392534805679,22.5242346663346,22.5242346663346,0.0288708770716509,4.809392376366564,2.85655203532077
26,9401.155,0.345223031026253,0.345223031026253,0.36484303102625304,0.008040386130458366,0.008040386130458366,0.007429520892260351,21.9392534805679,22.5242346663346,22.5242346663346,-0.003446193390505868,5.070418173739474,2.433087125118642
27,9458.794,0.345223031026253,0.345223031026253,0.36484303102625304,0.008040386130458366,0.008040386130458366,0.007429520892260351,21.9392534805679,22.5242346663346,22.5242346663346,-0.10012765118700569,5.283809093130463,2.446543601270229
28,9500.438,0.345223031026253,0.345223031026253,0.36484303102625304,0.008040386130458366,0.008040386130458366,0.007429520892260351,21.9392534805679,22.5242346663346,22.5242346663346,-0.1875072791632335,5.489694212811455,2.5105007658600993
29,9539.618,0.345223031026253,0.345223031026253,0.36484303102625304,0.008040386130458366,0.008040386130458366,0.007429520892260351,21.9392534805679,22.5242346663346,22.5242346663346,-0.2813141142365738,5.8373364358933815,2.4968462040869492
30,9599.721,0.345223031026253,0.345223031026253,0.36484303102625304,0.008040386130458366,0.008040386130458366,0.007429520892260351,21.9392534805679,22.5242346663346,22.5242346663346,-0.37057811545341734,6.16995668757521,2.4886699606842164
31,9618.399,0.345223031026253,0.345223031026253,0.36484303102625304,0.008040386130458366,0.008040386130458366,0.007429520892260351,21.9392534805679,22.5242346663346,22.5242346663346,-0.5677001548951519,6.434860037413686,2.4029641007151152
32,9696.959,0.345223031026253,0.345223031026253,0.36484303102625304,0.008040386130458366,0.008040386130458366,0.007429520892260351,21.9392534805679,22.5242346663346,22.5242346663346,-0.7055689987093894,6.848216914548075,2.2102132247667723
33,9777.781,0.345223031026253,0.345223031026253,0.36484303102625304,0.008040386130458366,0.008040386130458366,0.007429520892260351,21.9392534805679,22.5242346663346,22.5242346663346,-0.9391618637489724,7.172620871635366,2.2433528838514416
34,9796.874,0.345223031026253,0.345223031026253,0.36484303102625304,0.008040386130458366,0.008040386130458366,0.007429520892260351,21.9392534805679,22.5242346663346,22.5242346663346,-1.155391590463752,7.487892479877925,2.338065787505647
35,9856.565,0.345223031026253,0.345223031026253,0.36484303102625304,0.008040386130458366,0.008040386130458366,0.007429520892260351,21.9392534805679,22.5242346663346,22.5242346663346,-1.2433744498630455,7.941723384355316,1.771844827045959
36,9896.162,0.345223031026253,0.345223031026253,0.36484303102625304,0.008040386130458366,0.008040386130458366,0.007429520892260351,21.9392534805679,22.5242346663346,22.5242346663346,-1.3283359167044597,8.378004237175185,1.1771765710460182
37,9935.34,0.345223031026253,0.345223031026253,0.36484303102625304,0.008040386130458366,0.008040386130458366,0.007429520892260351,21.9392534805679,22.5242346663346,22.5242346663346,-1.3802905159086911,9.081452961954783,0.6023473675636112
38,9937.716,0.345223031026253,0.345223031026253,0.36484303102625304,0.008040386130458366,0.008040386130458366,0.007429520892260351,21.9392534805679,22.5242346663346,22.5242346663346,-1.390656881168024,9.651985186510897,-0.19126303555977178
39,9995.458,0.345223031026253,0.345223031026253,0.36484303102625304,0.008040386130458366,0.008040386130458366,0.007429520892260351,21.9392534805679,22.5242346663346,22.5242346663346,-1.3527758552127682,10.204897063859427,-0.7422568744745051
40,10016.185,0.345223031026253,0.345223031026253,0.36484303102625304,0.008040386130458366,0.008040386130458366,0.007429520892260351,21.9392534805679,22.5242346663346,22.5242346663346,-1.1519267374375555,10.585338537443931,-0.6221682783821738
41,10092.69,0.345223031026253,0.345223031026253,0.36484303102625304,0.008040386130458366,0.008040386130458366,0.007429520892260351,21.9392534805679,22.5242346663346,22.5242346663346,-0.9709760868711346,10.946819749225714,-0.5614501646571226
42,10094.965,0.345223031026253,0.345223031026253,0.36484303102625304,0.008040386130458366,0.008040386130458366,0.007429520892260351,21.9392534805679,22.5242346663346,22.5242346663346,-0.9692823011496292,11.152937746171084,-0.0894321547792277
43,10175.575,0.345223031026253,0.345223031026253,0.36484303102625304,0.008040386130458366,0.008040386130458366,0.007429520892260351,21.9392534805679,22.5242346663346,22.5242346663346,-0.9593908409405744,11.358304775146227,0.44239544398442293
44,10192.617,0.345223031026253,0.345223031026253,0.36484303102625304,0.008040386130458366,0.008040386130458366,0.007429520892260351,21.9392534805679,22.5242346663346,22.5242346663346,-0.9963213742739988,11.56932673207462,0.7994427078342702
45,10254.349,0.345223031026253,0.345223031026253,0.36484303102625304,0.008040386130458366,0.008040386130458366,0.007429520892260351,21.9392534805679,22.5242346663346,22.5242346663346,-1.050992950600089,12.012496998806705,1.0576898728674735
46,10291.898,0.345223031026253,0.345223031026253,0.36484303102625304,0.008040386130458366,0.008040386130458366,0.007429520892260351,21.9392534805679,22.5242346663346,22.5242346663346,-1.143052764410317,12.418821504455954,1.1566304214777894
47,10333.125,0.345223031026253,0.345223031026253,0.36484303102625304,0.008040386130458366,0.008040386130458366,0.007429520892260351,21.9392534805679,22.5242346663346,22.5242346663346,-1.355234323284226,12.22499255370138,1.1413249670968484
48,10389.129,0.345223031026253,0.345223031026253,0.36484303102625304,0.008040386130458366,0.008040386130458366,0.007429520892260351,21.9392534805679,22.5242346663346,22.5242346663346,-1.5473612896064046,12.053166956906727,1.1923992096347207
49,10413.958,0.345223031026253,0.345223031026253,0.36484303102625304,0.008040386130458366,0.008040386130458366,0.007429520892260351,21.9392534805679,22.5242346663346,22.5242346663346,-1.6921581619417645,11.935381948776607,1.1477903157021085
50,10488.415,0.345223031026253,0.345223031026253,0.36484303102625304,0.008040386130458366,0.008040386130458366,0.007429520892260351,21.9392534805679,22.5242346663346,22.5242346663346,-1.8266026989343092,11.80416150532821,1.1216260779893992
51,10492.742,0.345223031026253,0.345223031026253,0.36484303102625304,0.008040386130458366,0.008040386130458366,0.007429520892260351,21.9392534805679,22.5242346663346,22.5242346663346,-1.7580756654704768,11.110776305867585,0.886217144101543
52,10573.346,0.345223031026253,0.345223031026253,0.36484303102625304,0.008040386130458366,0.008040386130458366,0.007429520892260351,21.9392534805679,22.5242346663346,22.5242346663346,-1.8772895290686358,10.990791664869503,1.0164124436160076
53,10588.342,0.345223031026253,0.345223031026253,0.36484303102625304,0.008040386130458366,0.008040386130458366,0.007429520892260351,21.9392534805679,22.5242346663346,22.5242346663346,-1.9962543971883204,10.860003444607171,1.15231106376338
54,10652.121,0.345223031026253,0.345223031026253,0.36484303102625304,0.008040386130458366,0.008040386130458366,0.007429520892260351,21.9392534805679,22.5242346663346,22.5242346663346,-1.9010453388088209,10.311991251706267,0.754974358366144
55,10687.624,0.345223031026253,0.345223031026253,0.36484303102625304,0.008040386130458366,0.008040386130458366,0.007429520892260351,21.9392534805679,22.5242346663346,22.5242346663346,-1.750840291096028,9.78977673788239,0.576991676846786
56,10730.906,0.345223031026253,0.345223031026253,0.36484303102625304,0.008040386130458366,0.008040386130458366,0.007429520892260351,21.9392534805679,22.5242346663346,22.5242346663346,-1.6076717900001019,9.173529640962997,0.648186135742856
57,10784.864,0.345223031026253,0.345223031026253,0.36484303102625304,0.008040386130458366,0.008040386130458366,0.007429520892260351,21.9392534805679,22.5242346663346,22.5242346663346,-1.4756600534365751,8.562708565812562,0.6857099753443102
58,10811.743,0.345223031026253,0.345223031026253,0.36484303102625304,0.008040386130458366,0.008040386130458366,0.007429520892260351,21.9392534805679,22.5242346663346,22.5242346663346,-1.3956037494805114,8.152229017050939,0.8733902933553488
59,10884.149,0.345223031026253,0.345223031026253,0.36484303102625304,0.008040386130458366,0.008040386130458366,0.007429520892260351,21.9392534805679,22.5242346663346,22.5242346663346,-1.3316122783375455,7.723576158087592,1.0041669140770835
60,10890.525,0.345223031026253,0.345223031026253,0.36484303102625304,0.008040386130458366,0.008040386130458366,0.007429520892260351,21.9392534805679,22.5242346663346,22.5242346663346,-1.2979876650010598,6.5060673292849485,1.385532823674795
61,10969.077,0.345223031026253,0.345223031026253,0.36484303102625304,0.008040386130458366,0.008040386130458366,0.007429520892260351,21.9392534805679,22.5242346663346,22.5242346663346,-1.2447290677141019,4.918408554742748,1.5618470748397717
62,10984.071,0.345223031026253,0.345223031026253,0.36484303102625304,0.008040386130458366,0.008040386130458366,0.007429520892260351,21.9392534805679,22.5242346663346,22.5242346663346,-1.1935539390851475,3.3740548574758007,1.8370578040657684
63,11049.905,0.345223031026253,0.345223031026253,0.36484303102625304,0.008040386130458366,0.008040386130458366,0.007429520892260351,21.9392534805679,22.5242346663346,22.5242346663346,-1.2598827359673699,1.7925216529446826,2.2268759568565866
64,11081.311,0.345223031026253,0.345223031026253,0.36484303102625304,0.008040386130458366,0.008040386130458366,0.007429520892260351,21.9392534805679,22.5242346663346,22.5242346663346,-1.3585487104579246,0.21295189445194151,2.4021835705216974
65,11128.69,0.345223031026253,0.345223031026253,0.36484303102625304,0.008040386130458366,0.008040386130458366,0.007429520892260351,21.9392534805679,22.5242346663346,22.5242346663346,-1.496971938830988,-1.366567485741736,2.5400336914627686
66,11180.595,0.345223031026253,0.345223031026253,0.36484303102625304,0.008040386130458366,0.008040386130458366,0.007429520892260351,21.9392534805679,22.5242346663346,22.5242346663346,-1.640169634175706,-2.9189909536822864,2.5892117214954236
67,11207.471,0.345223031026253,0.345223031026253,0.36484303102625304,0.008040386130458366,0.008040386130458366,0.007429520892260351,21.9392534805679,22.5242346663346,22.5242346663346,-1.646388681658778,-4.252345481742267,2.301035013875612
68,11279.876,0.345223031026253,0.345223031026253,0.36484303102625304,0.008040386130458366,0.008040386130458366,0.007429520892260351,21.9392534805679,22.5242346663346,22.5242346663346,-1.6376431945921166,-5.558095438450115,2.092064587344232
69,11288.304,0.345223031026253,0.345223031026253,0.36484303102625304,0.008040386130458366,0.008040386130458366,0.007429520892260351,21.9392534805679,22.5242346663346,22.5242346663346,-1.4432945620562976,-6.957142431198077,1.7700395347784952
70,11366.855,0.345223031026253,0.345223031026253,0.36484303102625304,0.008040386130458366,0.008040386130458366,0.007429520892260351,21.9392534805679,22.5242346663346,22.5242346663346,-1.2148161404829017,-8.778470094548751,1.6216007484140011
71,11379.807,0.345223031026253,0.345223031026253,0.36484303102625304,0.008040386130458366,0.008040386130458366,0.007429520892260351,21.9392534805679,22.5242346663346,22.5242346663346,-0.9990972799325515,-10.558605948049834,1.618735120677566
72,11447.686,0.345223031026253,0.345223031026253,0.36484303102625304,0.008040386130458366,0.008040386130458366,0.007429520892260351,21.9392534805679,22.5242346663346,22.5242346663346,-0.7212110651078044,-12.281050358037406,1.543470615407782
73,11477.037,0.345223031026253,0.345223031026253,0.36484303102625304,0.008040386130458366,0.008040386130458366,0.007429520892260351,21.9392534805679,22.5242346663346,22.5242346663346,-0.4625271724819357,-13.972814658177743,1.5746205948765408
74,11526.467,0.345223031026253,0.345223031026253,0.36484303102625304,0.008040386130458366,0.008040386130458366,0.007429520892260351,21.9392534805679,22.5242346663346,22.5242346663346,-0.3784211426169768,-15.835433504359006,1.8098097902181722
75,11576.324,0.345223031026253,0.345223031026253,0.36484303102625304,0.008040386130458366,0.008040386130458366,0.007429520892260351,21.9392534805679,22.5242346663346,22.5242346663346,-0.280924296374488,-17.65128141239101,1.9256052804831791
76,11605.256,0.345223031026253,0.345223031026253,0.36484303102625304,0.008040386130458366,0.008040386130458366,0.007429520892260351,21.9392534805679,22.5242346663346,22.5242346663346,-0.18721170822594696,-19.59171333130731,1.9530578269994703
77,11675.607,0.345223031026253,0.345223031026253,0.36484303102625304,0.008040386130458366,0.008040386130458366,0.007429520892260351,21.9392534805679,22.5242346663346,22.5242346663346,-0.11502713414634025,-21.474490963311492,2.038811867152765
78,11686.085,0.345223031026253,0.345223031026253,0.36484303102625304,0.008040386130458366,0.008040386130458366,0.007429520892260351,21.9392534805679,22.5242346663346,22.5242346663346,-0.055412846732964954,-23.390552880387837,2.159049193234026
79,11764.629,0.345223031026253,0.345223031026253,0.36484303102625304,0.008040386130458366,0.008040386130458366,0.007429520892260351,21.9392534805679,22.5242346663346,22.5242346663346,0.017190890558260338,-25.280588400509632,2.1779013946791013
80,11773.471,0.345223031026253,0.345223031026253,0.36484303102625304,0.008040386130458366,0.008040386130458366,0.007429520892260351,21.9392534805679,22.5242346663346,22.5242346663346,0.05935622643822569,-27.10752361443576,2.2656185332967866
81,11843.414,0.345223031026253,0.345223031026253,0.36484303102625304,0.008040386130458366,0.008040386130458366,0.007429520892260351,21.9392534805679,22.5242346663346,22.5242346663346,-0.01691968243412462,-28.915005636219426,2.476173843271497
82,11872.761,0.345223031026253,0.345223031026253,0.36484303102625304,0.008040386130458366,0.008040386130458366,0.007429520892260351,21.9392534805679,22.5242346663346,22.5242346663346,-0.06065716815086966,-30.659819487632973,2.5921834219476683
83,11924.253,0.345223031026253,0.345223031026253,0.36484303102625304,0.008040386130458366,0.008040386130458366,0.007429520892260351,21.9392534805679,22.5242346663346,22.5242346663346,0.03829357912760096,-32.3316413123563,2.5008095236043872
84,11972.051,0.345223031026253,0.345223031026253,0.36484303102625304,0.008040386130458366,0.008040386130458366,0.007429520892260351,21.9392534805679,22.5242346663346,22.5242346663346,0.10405485583873893,-33.944474757318766,2.480840445295281
85,12003.034,0.345223031026253,0.345223031026253,0.36484303102625304,0.008040386130458366,0.008040386130458366,0.007429520892260351,21.9392534805679,22.5242346663346,22.5242346663346,0.3636590518218807,-35.63807124694138,2.2799359769424177
86,12071.329,0.345223031026253,0.345223031026253,0.36484303102625304,0.008040386130458366,0.008040386130458366,0.007429520892260351,21.9392534805679,22.5242346663346,22.5242346663346,0.6321870136829075,-37.27196805840296,2.071539990423012
87,12081.806,0.345223031026253,0.345223031026253,0.36484303102625304,0.008040386130458366,0.008040386130458366,0.007429520892260351,21.9392534805679,22.5242346663346,22.5242346663346,0.9111077934408381,-39.08559399704934,1.7840383585562303
88,12162.409,0.345223031026253,0.345223031026253,0.36484303102625304,0.008040386130458366,0.008040386130458366,0.007429520892260351,21.9392534805679,22.5242346663346,22.5242346663346,1.0234933131803063,-40.98199936449508,1.6234236276275031
89,12169.202,0.345223031026253,0.345223031026253,0.36484303102625304,0.008040386130458366,0.008040386130458366,0.007429520892260351,21.9392534805679,22.5242346663346,22.5242346663346,1.131520371959494,-42.80475802210426,1.478497319488923
90,12241.189,0.345223031026253,0.345223031026253,0.36484303102625304,0.008040386130458366,0.008040386130458366,0.007429520892260351,21.9392534805679,22.5242346663346,22.5242346663346,0.9900903778930372,-44.5818886211127,1.5740904410265248
91,12268.483,0.345223031026253,0.345223031026253,0.36484303102625304,0.008040386130458366,0.008040386130458366,0.007429520892260351,21.9392534805679,22.5242346663346,22.5242346663346,0.8484313392545559,-46.292075951958424,1.6682956042400168
92,12322.021,0.345223031026253,0.345223031026253,0.36484303102625304,0.008040386130458366,0.008040386130458366,0.007429520892260351,21.9392534805679,22.5242346663346,22.5242346663346,0.7463167027311677,-47.79956088234276,1.7462985781177416
93,12367.768,0.345223031026253,0.345223031026253,0.36484303102625304,0.008040386130458366,0.008040386130458366,0.007429520892260351,21.9392534805679,22.5242346663346,22.5242346663346,0.6553592362029185,-49.254019582259446,1.8076153179131287
94,12400.807,0.345223031026253,0.345223031026253,0.36484303102625304,0.008040386130458366,0.008040386130458366,0.007429520892260351,21.9392534805679,22.5242346663346,22.5242346663346,0.8418862614297407,-50.911813874981654,1.766139675795204
95,12467.058,0.345223031026253,0.345223031026253,0.36484303102625304,0.008040386130458366,0.008040386130458366,0.007429520892260351,21.9392534805679,22.5242346663346,22.5242346663346,1.0821078451471666,-52.513013127552654,1.6472627520647272
96,12479.585,0.345223031026253,0.345223031026253,0.36484303102625304,0.008040386130458366,0.008040386130458366,0.007429520892260351,21.9392534805679,22.5242346663346,22.5242346663346,1.6034915137454298,-54.46059377503944,1.3676259840754292
97,12560.187,0.345223031026253,0.345223031026253,0.36484303102625304,0.008040386130458366,0.008040386130458366,0.007429520892260351,21.9392534805679,22.5242346663346,22.5242346663346,1.9937967996246437,-55.86541259367225,1.0565447124502334
98,12564.93,0.345223031026253,0.345223031026253,0.36484303102625304,0.008040386130458366,0.008040386130458366,0.007429520892260351,21.9392534805679,22.5242346663346,22.5242346663346,2.381846017027973,-57.2186478216947,0.7470566082222296
99,12638.967,0.345223031026253,0.345223031026253,0.36484303102625304,0.008040386130458366,0.008040386130458366,0.007429520892260351,21.9392534805679,22.5242346663346,22.5242346663346,2.6271409015703617,-58.524783278053874,0.5742835897757592
100,12664.213,0.345223031026253,0.345223031026253,0.36484303102625304,0.008040386130458366,0.008040386130458366,0.007429520892260351,21.9392534805679,22.5242346663346,22.5242346663346,2.8569862774278993,-59.7811590866443,0.41759687807298834
101,12717.751,0.345223031026253,0.345223031026253,0.36484303102625304,0.008040386130458366,0.008040386130458366,0.007429520892260351,21.9392534805679,22.5242346663346,22.5242346663346,3.0278917565637373,-60.94409607107634,0.26062590737432895
102,12763.5,0.345223031026253,0.345223031026253,0.36484303102625304,0.008040386130458366,0.008040386130458366,0.007429520892260351,21.9392534805679,22.5242346663346,22.5242346663346,3.178902201259876,-62.06395875407092,0.12643785345870356
103,12798.586,0.345223031026253,0.345223031026253,0.36484303102625304,0.008040386130458366,0.008040386130458366,0.007429520892260351,21.9392534805679,22.5242346663346,22.5242346663346,3.4310610588641497,-63.091404458275136,-0.3337319388958209
104,12862.779,0.345223031026253,0.345223031026253,0.36484303102625304,0.008040386130458366,0.008040386130458366,0.007429520892260351,21.9392534805679,22.5242346663346,22.5242346663346,3.721546609474863,-64.0808546731889,-0.8255804766992215
105,12877.357,0.345223031026253,0.345223031026253,0.36484303102625304,0.008040386130458366,0.008040386130458366,0.007429520892260351,21.9392534805679,22.5242346663346,22.5242346663346,4.097098165119843,-64.78287636538366,-1.5109858989375753
106,12955.916,0.345223031026253,0.345223031026253,0.36484303102625304,0.008040386130458366,0.008040386130458366,0.007429520892260351,21.9392534805679,22.5242346663346,22.5242346663346,4.563721964445939,-65.45616072484596,-2.2210198614116012
107,12958.291,0.345223031026253,0.345223031026253,0.36484303102625304,0.008040386130458366,0.008040386130458366,0.007429520892260351,21.9392534805679,22.5242346663346,22.5242346663346,5.01785297103286,-66.11481497208804,-2.864167257732458
108,12960.667,0.345223031026253,0.345223031026253,0.36484303102625304,0.008040386130458366,0.008040386130458366,0.007429520892260351,21.9392534805679,22.5242346663346,22.5242346663346,5.510438556140568,-66.74100503630822,-3.5437710744352464
109,13036.761,0.345223031026253,0.345223031026253,0.36484303102625304,0.008040386130458366,0.008040386130458366,0.007429520892260351,21.9392534805679,22.5242346663346,22.5242346663346,6.258733552806058,-67.8182115944859,-4.602844324474265
110,13059.957,0.345223031026253,0.345223031026253,0.36484303102625304,0.008040386130458366,0.008040386130458366,0.007429520892260351,21.9392534805679,22.5242346663346,22.5242346663346,7.180264029810457,-68.84637433292849,-5.835927141743742
111,13115.545,0.345223031026253,0.345223031026253,0.36484303102625304,0.008040386130458366,0.008040386130458366,0.007429520892260351,21.9392534805679,22.5242346663346,22.5242346663346,7.838421019928978,-69.95052684593293,-6.62749354945037
112,13159.239,0.345223031026253,0.345223031026253,0.36484303102625304,0.008040386130458366,0.008040386130458366,0.007429520892260351,21.9392534805679,22.5242346663346,22.5242346663346,8.569305757433897,-71.0408286619837,-7.48875304491134
113,13196.368,0.345223031026253,0.345223031026253,0.36484303102625304,0.008040386130458366,0.008040386130458366,0.007429520892260351,21.9392534805679,22.5242346663346,22.5242346663346,8.877428553514342,-71.18470689369684,-7.797413831450318
114,13258.521,0.345223031026253,0.345223031026253,0.36484303102625304,0.008040386130458366,0.008040386130458366,0.007429520892260351,21.9392534805679,22.5242346663346,22.5242346663346,9.105437075705073,-71.30739941114743,-8.023838585073054
115,13275.149,0.345223031026253,0.345223031026253,0.36484303102625304,0.008040386130458366,0.008040386130458366,0.007429520892260351,21.9392534805679,22.5242346663346,22.5242346663346,8.995496325373196,-71.2754134705474,-7.8693640057274505
116,13353.709,0.345223031026253,0.345223031026253,0.36484303102625304,0.008040386130458366,0.008040386130458366,0.007429520892260351,21.9392534805679,22.5242346663346,22.5242346663346,8.905769088673319,-71.22758239184988,-7.681768000904413
117,13356.402,0.345223031026253,0.345223031026253,0.36484303102625304,0.008040386130458366,0.008040386130458366,0.007429520892260351,21.9392534805679,22.5242346663346,22.5242346663346,8.733120604987688,-71.19317406596736,-7.4074582053019755
118,13434.539,0.345223031026253,0.345223031026253,0.36484303102625304,0.008040386130458366,0.008040386130458366,0.007429520892260351,21.9392534805679,22.5242346663346,22.5242346663346,8.527091675263598,-71.4048881028455,-6.7849689696735735
119,13455.683,0.345223031026253,0.345223031026253,0.36484303102625304,0.008040386130458366,0.008040386130458366,0.007429520892260351,21.9392534805679,22.5242346663346,22.5242346663346,8.05427915898358,-71.60599485088284,-5.894626332175906
120,13513.322,0.345223031026253,0.345223031026253,0.36484303102625304,0.008040386130458366,0.008040386130458366,0.007429520892260351,21.9392534805679,22.5242346663346,22.5242346663346,7.6565819784871145,-72.04026973246577,-5.530141045854772
121,13554.968,0.345223031026253,0.345223031026253,0.36484303102625304,0.008040386130458366,0.008040386130458366,0.007429520892260351,21.9392534805679,22.5242346663346,22.5242346663346,7.564595848237444,-72.46036908590303,-5.480181239954081
122,13594.15,0.345223031026253,0.345223031026253,0.36484303102625304,0.008040386130458366,0.008040386130458366,0.007429520892260351,21.9392534805679,22.5242346663346,22.5242346663346,8.317835991876903,-72.51372710775249,-6.578485465560456
123,13654.258,0.345223031026253,0.345223031026253,0.36484303102625304,0.008040386130458366,0.008040386130458366,0.007429520892260351,21.9392534805679,22.5242346663346,22.5242346663346,9.272490777080026,-72.5744603817473,-7.879810477638183
124,13672.934,0.345223031026253,0.345223031026253,0.36484303102625304,0.008040386130458366,0.008040386130458366,0.007429520892260351,21.9392534805679,22.5242346663346,22.5242346663346,9.879490590963908,-72.31716072309297,-8.68730624718831
125,13751.488,0.345223031026253,0.345223031026253,0.36484303102625304,0.008040386130458366,0.008040386130458366,0.007429520892260351,21.9392534805679,22.5242346663346,22.5242346663346,9.889634637234055,-71.42739113202175,-8.707386199608163
126,13832.317,0.345223031026253,0.345223031026253,0.36484303102625304,0.008040386130458366,0.008040386130458366,0.007429520892260351,21.9392534805679,22.5242346663346,22.5242346663346,9.615014515938174,-70.31079208536347,-8.491440809174897
127,13851.413,0.345223031026253,0.345223031026253,0.36484303102625304,0.008040386130458366,0.008040386130458366,0.007429520892260351,21.9392534805679,22.5242346663346,22.5242346663346,9.292390182973975,-69.21969577474667,-8.22705906201788
128,13911.097,0.345223031026253,0.345223031026253,0.36484303102625304,0.008040386130458366,0.008040386130458366,0.007429520892260351,21.9392534805679,22.5242346663346,22.5242346663346,9.482430303214706,-68.2129153671073,-8.9783305345929
129,13950.698,0.345223031026253,0.345223031026253,0.36484303102625304,0.008040386130458366,0.008040386130458366,0.007429520892260351,21.9392534805679,22.5242346663346,22.5242346663346,9.903371658736987,-67.2338351423923,-9.974615880083764
130,13989.875,0.345223031026253,0.345223031026253,0.36484303102625304,0.008040386130458366,0.008040386130458366,0.007429520892260351,21.9392534805679,22.5242346663346,22.5242346663346,10.022413721806942,-66.19583149944066,-10.538126583613813
131,14049.979,0.345223031026253,0.345223031026253,0.36484303102625304,0.008040386130458366,0.008040386130458366,0.007429520892260351,21.9392534805679,22.5242346663346,22.5242346663346,10.05929934114367,-65.19075310199688,-11.012095378916175
132,14070.707,0.345223031026253,0.345223031026253,0.36484303102625304,0.008040386130458366,0.008040386130458366,0.007429520892260351,21.9392534805679,22.5242346663346,22.5242346663346,9.940060960687468,-64.65268951098932,-11.395047149803043
133,14147.216,0.345223031026253,0.345223031026253,0.36484303102625304,0.008040386130458366,0.008040386130458366,0.007429520892260351,21.9392534805679,22.5242346663346,22.5242346663346,9.872505647088346,-64.1294033084183,-11.825891335534525
134,14149.491,0.345223031026253,0.345223031026253,0.36484303102625304,0.008040386130458366,0.008040386130458366,0.007429520892260351,21.9392534805679,22.5242346663346,22.5242346663346,9.765430994861376,-63.73029515504891,-12.656664116123185
135,14230.096,0.345223031026253,0.345223031026253,0.36484303102625304,0.008040386130458366,0.008040386130458366,0.007429520892260351,21.9392534805679,22.5242346663346,22.5242346663346,9.29830930239158,-62.94636808330465,-12.71167137847542
136,14247.14,0.345223031026253,0.345223031026253,0.36484303102625304,0.008040386130458366,0.008040386130458366,0.007429520892260351,21.9392534805679,22.5242346663346,22.5242346663346,8.7185852253343,-62.182625395091144,-12.624392729240922
137,14308.867,0.345223031026253,0.345223031026253,0.36484303102625304,0.008040386130458366,0.008040386130458366,0.007429520892260351,21.9392534805679,22.5242346663346,22.5242346663346,7.615018876320544,-61.08341609958964,-11.385745857323561
138,14346.421,0.345223031026253,0.345223031026253,0.36484303102625304,0.008040386130458366,0.008040386130458366,0.007429520892260351,21.9392534805679,22.5242346663346,22.5242346663346,6.505943324976232,-60.047467751512485,-10.113017604119623
139,14387.652,0.345223031026253,0.345223031026253,0.36484303102625304,0.008040386130458366,0.008040386130458366,0.007429520892260351,21.9392534805679,22.5242346663346,22.5242346663346,5.100704937545857,-58.70903373902185,-8.337053866999579
140,14443.66,0.345223031026253,0.345223031026253,0.36484303102625304,0.008040386130458366,0.008040386130458366,0.007429520892260351,21.9392534805679,22.5242346663346,22.5242346663346,3.9437626666059056,-57.38365905725462,-6.809420695170013
141,14468.488,0.345223031026253,0.345223031026253,0.36484303102625304,0.008040386130458366,0.008040386130458366,0.007429520892260351,21.9392534805679,22.5242346663346,22.5242346663346,3.0252473523175034,-55.907819746782856,-5.386257253814847
142,14542.94,0.345223031026253,0.345223031026253,0.36484303102625304,0.008040386130458366,0.008040386130458366,0.007429520892260351,21.9392534805679,22.5242346663346,22.5242346663346,2.2613939480629845,-54.43423193302522,-4.118295208504639
143,14547.266,0.345223031026253,0.345223031026253,0.36484303102625304,0.008040386130458366,0.008040386130458366,0.007429520892260351,21.9392534805679,22.5242346663346,22.5242346663346,1.6918235834618538,-52.94561318793207,-3.2045227329180292
144,14625.826,0.345223031026253,0.345223031026253,0.36484303102625304,0.008040386130458366,0.008040386130458366,0.007429520892260351,21.9392534805679,22.5242346663346,22.5242346663346,1.271912365150704,-51.3975974949227,-2.5920052621131857
145,14642.87,0.345223031026253,0.345223031026253,0.36484303102625304,0.008040386130458366,0.008040386130458366,0.007429520892260351,21.9392534805679,22.5242346663346,22.5242346663346,1.016831412156216,-49.900432395258726,-2.17019603074586
146,14706.654,0.345223031026253,0.345223031026253,0.36484303102625304,0.008040386130458366,0.008040386130458366,0.007429520892260351,21.9392534805679,22.5242346663346,22.5242346663346,0.7730358220230287,-48.34426942453771,-1.8573440842729056
147,14740.11,0.345223031026253,0.345223031026253,0.36484303102625304,0.008040386130458366,0.008040386130458366,0.007429520892260351,21.9392534805679,22.5242346663346,22.5242346663346,0.6227716234562095,-46.838252016082286,-1.6567203366980552
148,14785.437,0.345223031026253,0.345223031026253,0.36484303102625304,0.008040386130458366,0.008040386130458366,0.007429520892260351,21.9392534805679,22.5242346663346,22.5242346663346,0.5087732323146326,-45.15257835908371,-1.4564709985886402
149,14839.394,0.345223031026253,0.345223031026253,0.36484303102625304,0.008040386130458366,0.008040386130458366,0.007429520892260351,21.9392534805679,22.5242346663346,22.5242346663346,0.42377500190100376,-43.519011483652406,-1.2897026830617433
150,14864.22,0.345223031026253,0.345223031026253,0.36484303102625304,0.008040386130458366,0.008040386130458366,0.007429520892260351,21.9392534805679,22.5242346663346,22.5242346663346,0.3035660338150301,-41.85750218266707,-0.9666253119677886
151,14938.677,0.345223031026253,0.345223031026253,0.36484303102625304,0.008040386130458366,0.008040386130458366,0.007429520892260351,21.9392534805679,22.5242346663346,22.5242346663346,0.21416264540955487,-40.24731495001418,-0.6774673332042739
152,14945.054,0.345223031026253,0.345223031026253,0.36484303102625304,0.008040386130458366,0.008040386130458366,0.007429520892260351,21.9392534805679,22.5242346663346,22.5242346663346,0.16142513691583418,-38.7111424632235,-0.6380689411600485
153,15023.606,0.345223031026253,0.345223031026253,0.36484303102625304,0.008040386130458366,0.008040386130458366,0.007429520892260351,21.9392534805679,22.5242346663346,22.5242346663346,0.09078750500950257,-37.23504948078997,-0.6813579979248002
154,15038.609,0.345223031026253,0.345223031026253,0.36484303102625304,0.008040386130458366,0.008040386130458366,0.007429520892260351,21.9392534805679,22.5242346663346,22.5242346663346,0.044200731093053246,-35.813020604150964,-0.7615595073770473
155,15102.386,0.345223031026253,0.345223031026253,0.36484303102625304,0.008040386130458366,0.008040386130458366,0.007429520892260351,21.9392534805679,22.5242346663346,22.5242346663346,0.013945889232792084,-34.38302128598754,-0.8758186522437971
156,15104.761,0.345223031026253,0.345223031026253,0.36484303102625304,0.008040386130458366,0.008040386130458366,0.007429520892260351,21.9392534805679,22.5242346663346,22.5242346663346,-0.005093679241059628,-33.013228294398544,-0.9897447730275855
157,15135.849,0.345223031026253,0.345223031026253,0.36484303102625304,0.008040386130458366,0.008040386130458366,0.007429520892260351,21.9392534805679,22.5242346663346,22.5242346663346,-0.03430814998935236,-31.687904473410885,-1.088086391974602
158,15183.227,0.345223031026253,0.345223031026253,0.36484303102625304,0.008040386130458366,0.008040386130458366,0.007429520892260351,21.9392534805679,22.5242346663346,22.5242346663346,-0.06207379913609896,-30.39029162457129,-1.080790312522553
159,15235.13,0.345223031026253,0.345223031026253,0.36484303102625304,0.008040386130458366,0.008040386130458366,0.007429520892260351,21.9392534805679,22.5242346663346,22.5242346663346,-0.0962134813488615,-29.14339706745515,-1.0582572208838403
160,15262.011,0.345223031026253,0.345223031026253,0.36484303102625304,0.008040386130458366,0.008040386130458366,0.007429520892260351,21.9392534805679,22.5242346663346,22.5242346663346,-0.14240691456180618,-27.91234773342005,-1.0436258049127165
161,15334.421,0.345223031026253,0.345223031026253,0.36484303102625304,0.008040386130458366,0.008040386130458366,0.007429520892260351,21.9392534805679,22.5242346663346,22.5242346663346,-0.18528689112417632,-26.725884174753343,-1.0321592426052986
162,15340.799,0.345223031026253,0.345223031026253,0.36484303102625304,0.008040386130458366,0.008040386130458366,0.007429520892260351,21.9392534805679,22.5242346663346,22.5242346663346,-0.23740009183204452,-25.53352875220817,-1.0515780132898842
163,15343.174,0.345223031026253,0.345223031026253,0.36484303102625304,0.008040386130458366,0.008040386130458366,0.007429520892260351,21.9392534805679,22.5242346663346,22.5242346663346,-0.3115804962425302,-24.38173372591681,-1.062213265650483
164,15421.411,0.345223031026253,0.345223031026253,0.36484303102625304,0.008040386130458366,0.008040386130458366,0.007429520892260351,21.9392534805679,22.5242346663346,22.5242346663346,-0.3572038681528229,-23.26196509315783,-1.1396531321865981
165,15432.305,0.345223031026253,0.345223031026253,0.36484303102625304,0.008040386130458366,0.008040386130458366,0.007429520892260351,21.9392534805679,22.5242346663346,22.5242346663346,-0.40288957992750735,-22.183198934702883,-1.2161371282016757
166,15500.184,0.345223031026253,0.345223031026253,0.36484303102625304,0.008040386130458366,0.008040386130458366,0.007429520892260351,21.9392534805679,22.5242346663346,22.5242346663346,-0.48371210677879856,-21.227139056314396,-1.2601460134700126
167,15531.579,0.345223031026253,0.345223031026253,0.36484303102625304,0.008040386130458366,0.008040386130458366,0.007429520892260351,21.9392534805679,22.5242346663346,22.5242346663346,-0.5590296111779882,-20.306017788725484,-1.3130059547646982
168,15581.018,0.345223031026253,0.345223031026253,0.36484303102625304,0.008040386130458366,0.008040386130458366,0.007429520892260351,21.9392534805679,22.5242346663346,22.5242346663346,-0.6101495700090536,-19.42479218579441,-1.4060625857672562
169,15630.865,0.345223031026253,0.345223031026253,0.36484303102625304,0.008040386130458366,0.008040386130458366,0.007429520892260351,21.9392534805679,22.5242346663346,22.5242346663346,-0.6615889211928879,-18.584232051550167,-1.4945808464722088
170,15659.803,0.345223031026253,0.345223031026253,0.36484303102625304,0.008040386130458366,0.008040386130458366,0.007429520892260351,21.9392534805679,22.5242346663346,22.5242346663346,-0.7141631541310289,-17.654628589547446,-1.4823195955519115
171,15730.154,0.345223031026253,0.345223031026253,0.36484303102625304,0.008040386130458366,0.008040386130458366,0.007429520892260351,21.9392534805679,22.5242346663346,22.5242346663346,-0.7671864308333197,-16.75718860768094,-1.4626616073316154
172,15738.587,0.345223031026253,0.345223031026253,0.36484303102625304,0.008040386130458366,0.008040386130458366,0.007429520892260351,21.9392534805679,22.5242346663346,22.5242346663346,-0.7955931556450312,-16.00148742060305,-1.4661755610540337
173,15819.182,0.345223031026253,0.345223031026253,0.36484303102625304,0.008040386130458366,0.008040386130458366,0.007429520892260351,21.9392534805679,22.5242346663346,22.5242346663346,-0.8464532628280109,-15.255073901992425,-1.4766410619126626
174,15828.025,0.345223031026253,0.345223031026253,0.36484303102625304,0.008040386130458366,0.008040386130458366,0.007429520892260351,21.9392534805679,22.5242346663346,22.5242346663346,-0.8947005771501656,-14.53860921116179,-1.4895834752261794
175,15897.964,0.345223031026253,0.345223031026253,0.36484303102625304,0.008040386130458366,0.008040386130458366,0.007429520892260351,21.9392534805679,22.5242346663346,22.5242346663346,-0.9671273907152994,-13.877299493473473,-1.4797118904981874
176,15927.31,0.345223031026253,0.345223031026253,0.36484303102625304,0.008040386130458366,0.008040386130458366,0.007429520892260351,21.9392534805679,22.5242346663346,22.5242346663346,-1.0355182130975629,-13.240383486766083,-1.4752355942028879
177,15976.748,0.345223031026253,0.345223031026253,0.36484303102625304,0.008040386130458366,0.008040386130458366,0.007429520892260351,21.9392534805679,22.5242346663346,22.5242346663346,-1.0631761187389768,-12.6968043435429,-1.4794973463414387
178,16026.597,0.345223031026253,0.345223031026253,0.36484303102625304,0.008040386130458366,0.008040386130458366,0.007429520892260351,21.9392534805679,22.5242346663346,22.5242346663346,-1.0902931592494873,-12.17706026973884,-1.4799063253358027
179,16057.584,0.345223031026253,0.345223031026253,0.36484303102625304,0.008040386130458366,0.008040386130458366,0.007429520892260351,21.9392534805679,22.5242346663346,22.5242346663346,-1.0994338588906223,-11.635690840384655,-1.5037930700692235
180,16125.878,0.345223031026253,0.345223031026253,0.36484303102625304,0.008040386130458366,0.008040386130458366,0.007429520892260351,21.9392534805679,22.5242346663346,22.5242346663346,-1.1089950306589842,-11.118563394874274,-1.5233059607307298
181,16136.354,0.345223031026253,0.345223031026253,0.36484303102625304,0.008040386130458366,0.008040386130458366,0.007429520892260351,21.9392534805679,22.5242346663346,22.5242346663346,-1.1881895460518745,-10.624362196394907,-1.5411215860712908
182,16216.965,0.345223031026253,0.345223031026253,0.36484303102625304,0.008040386130458366,0.008040386130458366,0.007429520892260351,21.9392534805679,22.5242346663346,22.5242346663346,-1.2376955407816483,-10.120372459167559,-1.5664914744370473
183,16223.759,0.345223031026253,0.345223031026253,0.36484303102625304,0.008040386130458366,0.008040386130458366,0.007429520892260351,21.9392534805679,22.5242346663346,22.5242346663346,-1.2855524535675065,-9.635197731860575,-1.5921394687559904
184,16295.751,0.345223031026253,0.345223031026253,0.36484303102625304,0.008040386130458366,0.008040386130458366,0.007429520892260351,21.9392534805679,22.5242346663346,22.5242346663346,-1.3541641139503682,-9.2545001726381,-1.5782164134781484
185,16323.047,0.345223031026253,0.345223031026253,0.36484303102625304,0.008040386130458366,0.008040386130458366,0.007429520892260351,21.9392534805679,22.5242346663346,22.5242346663346,-1.4189670381069817,-8.89119499671471,-1.5679805151013513
186,16374.531,0.345223031026253,0.345223031026253,0.36484303102625304,0.008040386130458366,0.008040386130458366,0.007429520892260351,21.9392534805679,22.5242346663346,22.5242346663346,-1.4860088731418817,-8.561465845746293,-1.534707984047201
187,16422.325,0.345223031026253,0.345223031026253,0.36484303102625304,0.008040386130458366,0.008040386130458366,0.007429520892260351,21.9392534805679,22.5242346663346,22.5242346663346,-1.5495600367547737,-8.24680368601291,-1.5027593600295226
188,16455.363,0.345223031026253,0.345223031026253,0.36484303102625304,0.008040386130458366,0.008040386130458366,0.007429520892260351,21.9392534805679,22.5242346663346,22.5242346663346,-1.6210273750724555,-7.851584885930268,-1.5329900581141471
189,16521.614,0.345223031026253,0.345223031026253,0.36484303102625304,0.008040386130458366,0.008040386130458366,0.007429520892260351,21.9392534805679,22.5242346663346,22.5242346663346,-1.6900772772583206,-7.470773558046842,-1.562970864268449
190,16534.14,0.345223031026253,0.345223031026253,0.36484303102625304,0.008040386130458366,0.008040386130458366,0.007429520892260351,21.9392534805679,22.5242346663346,22.5242346663346,-1.7033862958581985,-7.194032835916737,-1.6036262442135185
191,16612.699,0.345223031026253,0.345223031026253,0.36484303102625304,0.008040386130458366,0.008040386130458366,0.007429520892260351,21.9392534805679,22.5242346663346,22.5242346663346,-1.7169218464346743,-6.90118622651916,-1.621429456805176
192,16619.491,0.345223031026253,0.345223031026253,0.36484303102625304,0.008040386130458366,0.008040386130458366,0.007429520892260351,21.9392534805679,22.5242346663346,22.5242346663346,-1.730314915209905,-6.62075175399606,-1.6358972522033048
193,16693.527,0.345223031026253,0.345223031026253,0.36484303102625304,0.008040386130458366,0.008040386130458366,0.007429520892260351,21.9392534805679,22.5242346663346,22.5242346663346,-1.7282452014713297,-6.322741384339083,-1.656545644933922
194,16718.771,0.345223031026253,0.345223031026253,0.36484303102625304,0.008040386130458366,0.008040386130458366,0.007429520892260351,21.9392534805679,22.5242346663346,22.5242346663346,-1.7265714343593443,-6.038032516950887,-1.6741229559231041
195,16772.31,0.345223031026253,0.345223031026253,0.36484303102625304,0.008040386130458366,0.008040386130458366,0.007429520892260351,21.9392534805679,22.5242346663346,22.5242346663346,-1.7889788225043552,-5.787883031166095,-1.6886881996822591
196,16818.058,0.345223031026253,0.345223031026253,0.36484303102625304,0.008040386130458366,0.008040386130458366,0.007429520892260351,21.9392534805679,22.5242346663346,22.5242346663346,-1.8484302017865253,-5.548119396207524,-1.7086278974349667
197,16851.084,0.345223031026253,0.345223031026253,0.36484303102625304,0.008040386130458366,0.008040386130458366,0.007429520892260351,21.9392534805679,22.5242346663346,22.5242346663346,-1.8045484328301684,-5.327637136016229,-1.6724244768663754
198,16853.459,0.345223031026253,0.345223031026253,0.36484303102625304,0.008040386130458366,0.008040386130458366,0.007429520892260351,21.9392534805679,22.5242346663346,22.5242346663346,-1.7138578254465973,-5.0911162666962335,-1.6381456951198934
199,16917.341,0.345223031026253,0.345223031026253,0.36484303102625304,0.008040386130458366,0.008040386130458366,0.007429520892260351,21.9392534805679,22.5242346663346,22.5242346663346,-1.6275075107410675,-4.8657474168268005,-1.5953996555974603
200,16931.917,0.345223031026253,0.345223031026253,0.36484303102625304,0.008040386130458366,0.008040386130458366,0.007429520892260351,21.9392534805679,22.5242346663346,22.5242346663346,-0.9868545373602821,-4.36267694281351,-1.3040070319551422
201,17010.471,0.345223031026253,0.345223031026253,0.36484303102625304,0.008040386130458366,0.008040386130458366,0.007429520892260351,21.9392534805679,22.5242346663346,22.5242346663346,-0.4919208267435706,-3.9332762257088234,-0.9332110778769712
202,17015.215,0.345223031026253,0.345223031026253,0.36484303102625304,0.008040386130458366,0.008040386130458366,0.007429520892260351,21.9392534805679,22.5242346663346,22.5242346663346,-0.020464047466790872,-3.5211023481555648,-0.5461870780778441
203,17091.307,0.345223031026253,0.345223031026253,0.36484303102625304,0.008040386130458366,0.008040386130458366,0.007429520892260351,21.9392534805679,22.5242346663346,22.5242346663346,0.7754796935743596,-3.397429363272245,-0.6655545939318919
204,17114.503,0.345223031026253,0.345223031026253,0.36484303102625304,0.008040386130458366,0.008040386130458366,0.007429520892260351,21.9392534805679,22.5242346663346,22.5242346663346,1.5404515681290718,-3.2780262832134714,-0.8155129831738379
205,17170.088,0.345223031026253,0.345223031026253,0.36484303102625304,0.008040386130458366,0.008040386130458366,0.007429520892260351,21.9392534805679,22.5242346663346,22.5242346663346,2.942407514710312,-3.0964674205871283,-0.9399048376258499
206,17213.782,0.345223031026253,0.345223031026253,0.36484303102625304,0.008040386130458366,0.008040386130458366,0.007429520892260351,21.9392534805679,22.5242346663346,22.5242346663346,4.2881338308383565,-2.918982400356803,-1.093309986954236
207,17248.862,0.345223031026253,0.345223031026253,0.36484303102625304,0.008040386130458366,0.008040386130458366,0.007429520892260351,21.9392534805679,22.5242346663346,22.5242346663346,6.402940633194178,-2.777777006966755,-1.5158026876701847
208,17313.069,0.345223031026253,0.345223031026253,0.36484303102625304,0.008040386130458366,0.008040386130458366,0.007429520892260351,21.9392534805679,22.5242346663346,22.5242346663346,8.431277092263866,-2.6267294149609146,-1.9904058533023097
209,17329.697,0.345223031026253,0.345223031026253,0.36484303102625304,0.008040386130458366,0.008040386130458366,0.007429520892260351,21.9392534805679,22.5242346663346,22.5242346663346,9.559772724231713,-2.6364156476017495,-2.610321813611125
210,17408.254,0.345223031026253,0.345223031026253,0.36484303102625304,0.008040386130458366,0.008040386130458366,0.007429520892260351,21.9392534805679,22.5242346663346,22.5242346663346,10.335386985714903,-2.5920197105366745,-3.2106113134276053
211,17410.947,0.345223031026253,0.345223031026253,0.36484303102625304,0.008040386130458366,0.008040386130458366,0.007429520892260351,21.9392534805679,22.5242346663346,22.5242346663346,11.086310765605475,-2.5533633909111897,-3.7999942312940216
212,17489.084,0.345223031026253,0.345223031026253,0.36484303102625304,0.008040386130458366,0.008040386130458366,0.007429520892260351,21.9392534805679,22.5242346663346,22.5242346663346,10.86080578759647,-2.5832443847331237,-4.2814966024050065
213,17510.229,0.345223031026253,0.345223031026253,0.36484303102625304,0.008040386130458366,0.008040386130458366,0.007429520892260351,21.9392534805679,22.5242346663346,22.5242346663346,10.664613786520112,-2.6331740988172654,-4.695797418951935
214,17567.87,0.345223031026253,0.345223031026253,0.36484303102625304,0.008040386130458366,0.008040386130458366,0.007429520892260351,21.9392534805679,22.5242346663346,22.5242346663346,10.522392522161425,-2.5499574220575694,-5.029582333479929
215,17609.517,0.345223031026253,0.345223031026253,0.36484303102625304,0.008040386130458366,0.008040386130458366,0.007429520892260351,21.9392534805679,22.5242346663346,22.5242346663346,10.374969584389447,-2.490610807088918,-5.298161087943409
216,17646.648,0.345223031026253,0.345223031026253,0.36484303102625304,0.008040386130458366,0.008040386130458366,0.007429520892260351,21.9392534805679,22.5242346663346,22.5242346663346,10.271856555813011,-2.332016873215542,-5.361855213666225
217,17708.804,0.345223031026253,0.345223031026253,0.36484303102625304,0.008040386130458366,0.008040386130458366,0.007429520892260351,21.9392534805679,22.5242346663346,22.5242346663346,10.148727688154827,-2.1893500418315184,-5.39338177025663
218,17727.481,0.345223031026253,0.345223031026253,0.36484303102625304,0.008040386130458366,0.008040386130458366,0.007429520892260351,21.9392534805679,22.5242346663346,22.5242346663346,10.05415791171794,-2.493220718194242,-6.068767644213225
219,17806.033,0.345223031026253,0.345223031026253,0.36484303102625304,0.008040386130458366,0.008040386130458366,0.007429520892260351,21.9392534805679,22.5242346663346,22.5242346663346,10.150701626092882,-2.77577209924291,-6.802230466344709
220,17886.863,0.345223031026253,0.345223031026253,0.36484303102625304,0.008040386130458366,0.008040386130458366,0.007429520892260351,21.9392534805679,22.5242346663346,22.5242346663346,9.739558544171198,-3.0252350885516033,-7.319828413053055
221,17905.96,0.345223031026253,0.345223031026253,0.36484303102625304,0.008040386130458366,0.008040386130458366,0.007429520892260351,21.9392534805679,22.5242346663346,22.5242346663346,9.35011251139808,-3.3008058686234425,-7.732372126222429
222,17965.638,0.345223031026253,0.345223031026253,0.36484303102625304,0.008040386130458366,0.008040386130458366,0.007429520892260351,21.9392534805679,22.5242346663346,22.5242346663346,8.666515589272151,-3.490991497562442,-7.766363083803796
223,18005.24,0.345223031026253,0.345223031026253,0.36484303102625304,0.008040386130458366,0.008040386130458366,0.007429520892260351,21.9392534805679,22.5242346663346,22.5242346663346,7.979054193400085,-3.6874874318741173,-7.753318000706295
224,18044.419,0.345223031026253,0.345223031026253,0.36484303102625304,0.008040386130458366,0.008040386130458366,0.007429520892260351,21.9392534805679,22.5242346663346,22.5242346663346,7.576078930573674,-3.984667597193485,-7.905928770443907
225,18104.524,0.345223031026253,0.345223031026253,0.36484303102625304,0.008040386130458366,0.008040386130458366,0.007429520892260351,21.9392534805679,22.5242346663346,22.5242346663346,7.196193157368523,-4.269295238827791,-8.118333266411772
226,18125.253,0.345223031026253,0.345223031026253,0.36484303102625304,0.008040386130458366,0.008040386130458366,0.007429520892260351,21.9392534805679,22.5242346663346,22.5242346663346,6.620535312039886,-4.554809683713361,-8.284275240881808
227,18201.762,0.345223031026253,0.345223031026253,0.36484303102625304,0.008040386130458366,0.008040386130458366,0.007429520892260351,21.9392534805679,22.5242346663346,22.5242346663346,6.072706986600267,-4.837825517551202,-8.44043615004039
228,18204.037,0.345223031026253,0.345223031026253,0.36484303102625304,0.008040386130458366,0.008040386130458366,0.007429520892260351,21.9392534805679,22.5242346663346,22.5242346663346,5.4714501551003805,-4.8837277809360105,-8.178132525646586
229,18282.594,0.345223031026253,0.345223031026253,0.36484303102625304,0.008040386130458366,0.008040386130458366,0.007429520892260351,21.9392534805679,22.5242346663346,22.5242346663346,5.154278992902734,-4.938296252318448,-8.01259237605499
230,18301.687,0.345223031026253,0.345223031026253,0.36484303102625304,0.008040386130458366,0.008040386130458366,0.007429520892260351,21.9392534805679,22.5242346663346,22.5242346663346,4.8471755074028025,-4.973726240193873,-7.966918361275735
231,18363.418,0.345223031026253,0.345223031026253,0.36484303102625304,0.008040386130458366,0.008040386130458366,0.007429520892260351,21.9392534805679,22.5242346663346,22.5242346663346,5.1546886332705,-5.302420991272523,-8.725019123868778
232,18400.97,0.345223031026253,0.345223031026253,0.36484303102625304,0.008040386130458366,0.008040386130458366,0.007429520892260351,21.9392534805679,22.5242346663346,22.5242346663346,5.453545305209075,-5.6490729323729445,-9.501626488155782
233,18442.201,0.345223031026253,0.345223031026253,0.36484303102625304,0.008040386130458366,0.008040386130458366,0.007429520892260351,21.9392534805679,22.5242346663346,22.5242346663346,4.6443452148931295,-6.179233469307686,-9.82332637918646
234,18500.258,0.345223031026253,0.345223031026253,0.36484303102625304,0.008040386130458366,0.008040386130458366,0.007429520892260351,21.9392534805679,22.5242346663346,22.5242346663346,3.8644274139870514,-6.716222966624787,-10.058922120874863
235,18520.985,0.345223031026253,0.345223031026253,0.36484303102625304,0.008040386130458366,0.008040386130458366,0.007429520892260351,21.9392534805679,22.5242346663346,22.5242346663346,2.809219220986903,-7.217466673644522,-9.986503842382819
236,18523.359,0.345223031026253,0.345223031026253,0.36484303102625304,0.008040386130458366,0.008040386130458366,0.007429520892260351,21.9392534805679,22.5242346663346,22.5242346663346,1.8351405615952687,-7.706036674911721,-9.913995019953568
237,18597.498,0.345223031026253,0.345223031026253,0.36484303102625304,0.008040386130458366,0.008040386130458366,0.007429520892260351,21.9392534805679,22.5242346663346,22.5242346663346,0.8563023482286525,-8.185042715122282,-9.872804079837834
238,18601.825,0.345223031026253,0.345223031026253,0.36484303102625304,0.008040386130458366,0.008040386130458366,0.007429520892260351,21.9392534805679,22.5242346663346,22.5242346663346,-0.4127579769547203,-8.673239124852072,-9.396618162898834
239,18680.37,0.345223031026253,0.345223031026253,0.36484303102625304,0.008040386130458366,0.008040386130458366,0.007429520892260351,21.9392534805679,22.5242346663346,22.5242346663346,-2.03730182575844,-8.992596728041601,-8.514938387298557
240,18697.415,0.345223031026253,0.345223031026253,0.36484303102625304,0.008040386130458366,0.008040386130458366,0.007429520892260351,21.9392534805679,22.5242346663346,22.5242346663346,-3.624638453531983,-9.246066124599036,-7.693417214317186
241,18761.198,0.345223031026253,0.345223031026253,0.36484303102625304,0.008040386130458366,0.008040386130458366,0.007429520892260351,21.9392534805679,22.5242346663346,22.5242346663346,-4.7392895089534575,-9.470425033770436,-7.167045590324939
242,18796.704,0.345223031026253,0.345223031026253,0.36484303102625304,0.008040386130458366,0.008040386130458366,0.007429520892260351,21.9392534805679,22.5242346663346,22.5242346663346,-5.84770315131847,-9.657154230969132,-6.610159007996097
243,18839.981,0.345223031026253,0.345223031026253,0.36484303102625304,0.008040386130458366,0.008040386130458366,0.007429520892260351,21.9392534805679,22.5242346663346,22.5242346663346,-6.647300626317082,-9.769884109985371,-6.280014216260381
244,18895.983,0.345223031026253,0.345223031026253,0.36484303102625304,0.008040386130458366,0.008040386130458366,0.007429520892260351,21.9392534805679,22.5242346663346,22.5242346663346,-7.436104492805342,-9.867780531433178,-5.997471514245042
245,18918.762,0.345223031026253,0.345223031026253,0.36484303102625304,0.008040386130458366,0.008040386130458366,0.007429520892260351,21.9392534805679,22.5242346663346,22.5242346663346,-8.208517155259289,-10.016071480109403,-5.825066914616882
246,18993.222,0.345223031026253,0.345223031026253,0.36484303102625304,0.008040386130458366,0.008040386130458366,0.007429520892260351,21.9392534805679,22.5242346663346,22.5242346663346,-8.999099726008577,-10.157741279398879,-5.660196204448643
247,18999.6,0.345223031026253,0.345223031026253,0.36484303102625304,0.008040386130458366,0.008040386130458366,0.007429520892260351,21.9392534805679,22.5242346663346,22.5242346663346,-10.746006927076973,-10.424928707425577,-5.351394346629042
248,19078.154,0.345223031026253,0.345223031026253,0.36484303102625304,0.008040386130458366,0.008040386130458366,0.007429520892260351,21.9392534805679,22.5242346663346,22.5242346663346,-12.431007167562559,-10.946252506985996,-5.262946493014102
249,19093.158,0.345223031026253,0.345223031026253,0.36484303102625304,0.008040386130458366,0.008040386130458366,0.007429520892260351,21.9392534805679,22.5242346663346,22.5242346663346,-14.113601041108367,-11.423842060323961,-5.02664594355614
250,19158.986,0.345223031026253,0.345223031026253,0.36484303102625304,0.008040386130458366,0.008040386130458366,0.007429520892260351,21.9392534805679,22.5242346663346,22.5242346663346,-16.268090272829113,-12.076676987307046,-4.945490062937805
251,19192.439,0.345223031026253,0.345223031026253,0.36484303102625304,0.008040386130458366,0.008040386130458366,0.007429520892260351,21.9392534805679,22.5242346663346,22.5242346663346,-18.401642895512826,-12.662950080947438,-4.674606608019939
252,19237.768,0.345223031026253,0.345223031026253,0.36484303102625304,0.008040386130458366,0.008040386130458366,0.007429520892260351,21.9392534805679,22.5242346663346,22.5242346663346,-20.085797817364796,-12.769813200642641,-4.19617073952251
253,19291.724,0.345223031026253,0.345223031026253,0.36484303102625304,0.008040386130458366,0.008040386130458366,0.007429520892260351,21.9392534805679,22.5242346663346,22.5242346663346,-21.738448717852773,-12.87160291035666,-3.807273734259498
254,19316.555,0.345223031026253,0.345223031026253,0.36484303102625304,0.008040386130458366,0.008040386130458366,0.007429520892260351,21.9392534805679,22.5242346663346,22.5242346663346,-23.340095263262167,-12.850828433978148,-3.4233624820516737
255,19388.957,0.345223031026253,0.345223031026253,0.36484303102625304,0.008040386130458366,0.008040386130458366,0.007429520892260351,21.9392534805679,22.5242346663346,22.5242346663346,-24.899534572856346,-12.844120706232216,-3.1437438828926756
256,19397.394,0.345223031026253,0.345223031026253,0.36484303102625304,0.008040386130458366,0.008040386130458366,0.007429520892260351,21.9392534805679,22.5242346663346,22.5242346663346,-26.80867552189891,-12.807231405149386,-2.8910070998618935
257,19475.938,0.345223031026253,0.345223031026253,0.36484303102625304,0.008040386130458366,0.008040386130458366,0.007429520892260351,21.9392534805679,22.5242346663346,22.5242346663346,-28.84539311069535,-12.854049974978006,-2.7227729179662608
258,19488.882,0.345223031026253,0.345223031026253,0.36484303102625304,0.008040386130458366,0.008040386130458366,0.007429520892260351,21.9392534805679,22.5242346663346,22.5242346663346,-30.81958362553499,-12.90559779754983,-2.5910940757363483
259,19556.768,0.345223031026253,0.345223031026253,0.36484303102625304,0.008040386130458366,0.008040386130458366,0.007429520892260351,21.9392534805679,22.5242346663346,22.5242346663346,-32.8536832601914,-12.834482851004593,-2.4658931556922634
260,19588.165,0.345223031026253,0.345223031026253,0.36484303102625304,0.008040386130458366,0.008040386130458366,0.007429520892260351,21.9392534805679,22.5242346663346,22.5242346663346,-34.8377408844688,-12.762697574436823,-2.3572673572583094
261,19635.557,0.345223031026253,0.345223031026253,0.36484303102625304,0.008040386130458366,0.008040386130458366,0.007429520892260351,21.9392534805679,22.5242346663346,22.5242346663346,-36.482646664379395,-12.80113467862843,-2.268399010790238
262,19687.454,0.345223031026253,0.345223031026253,0.36484303102625304,0.008040386130458366,0.008040386130458366,0.007429520892260351,21.9392534805679,22.5242346663346,22.5242346663346,-38.07731193784996,-12.856011020865843,-2.2130862425024813
263,19714.341,0.345223031026253,0.345223031026253,0.36484303102625304,0.008040386130458366,0.008040386130458366,0.007429520892260351,21.9392534805679,22.5242346663346,22.5242346663346,-39.853196208590774,-12.917363707235696,-2.1477584827151928
264,19784.686,0.345223031026253,0.345223031026253,0.36484303102625304,0.008040386130458366,0.008040386130458366,0.007429520892260351,21.9392534805679,22.5242346663346,22.5242346663346,-41.5743130678904,-12.970823309477279,-2.077801621115864
265,19795.164,0.345223031026253,0.345223031026253,0.36484303102625304,0.008040386130458366,0.008040386130458366,0.007429520892260351,21.9392534805679,22.5242346663346,22.5242346663346,-43.30356984157554,-13.143811782124285,-2.021145518577517
266,19873.718,0.345223031026253,0.345223031026253,0.36484303102625304,0.008040386130458366,0.008040386130458366,0.007429520892260351,21.9392534805679,22.5242346663346,22.5242346663346,-45.25682761613302,-13.197119293154518,-1.9734812111430728
267,19884.613,0.345223031026253,0.345223031026253,0.36484303102625304,0.008040386130458366,0.008040386130458366,0.007429520892260351,21.9392534805679,22.5242346663346,22.5242346663346,-47.1531038675327,-13.226527382959272,-1.9017626787094055
268,19952.504,0.345223031026253,0.345223031026253,0.36484303102625304,0.008040386130458366,0.008040386130458366,0.007429520892260351,21.9392534805679,22.5242346663346,22.5242346663346,-49.726058150530285,-13.10897222115393,-1.8503412029229303
269,19954.879,0.345223031026253,0.345223031026253,0.36484303102625304,0.008040386130458366,0.008040386130458366,0.007429520892260351,21.9392534805679,22.5242346663346,22.5242346663346,-52.19053085283965,-12.986694476550245,-1.8155568653482295
270,19983.909,0.345223031026253,0.345223031026253,0.36484303102625304,0.008040386130458366,0.008040386130458366,0.007429520892260351,21.9392534805679,22.5242346663346,22.5242346663346,-54.5630867778178,-12.8674723794278,-1.784553293161261
271,20033.347,0.345223031026253,0.345223031026253,0.36484303102625304,0.008040386130458366,0.008040386130458366,0.007429520892260351,21.9392534805679,22.5242346663346,22.5242346663346,-57.212523389928286,-13.15483368121167,-1.709716678369916
272,20083.196,0.345223031026253,0.345223031026253,0.36484303102625304,0.008040386130458366,0.008040386130458366,0.007429520892260351,21.9392534805679,22.5242346663346,22.5242346663346,-59.75602112953569,-13.476773401066804,-1.649620718499663
273,20112.129,0.345223031026253,0.345223031026253,0.36484303102625304,0.008040386130458366,0.008040386130458366,0.007429520892260351,21.9392534805679,22.5242346663346,22.5242346663346,-61.74244571190875,-14.094449859377757,-1.2081825110039233
274,20180.423,0.345223031026253,0.345223031026253,0.36484303102625304,0.008040386130458366,0.008040386130458366,0.007429520892260351,21.9392534805679,22.5242346663346,22.5242346663346,-63.64766990720151,-14.721480332386104,-0.7850816375971923
275,20192.951,0.345223031026253,0.345223031026253,0.36484303102625304,0.008040386130458366,0.008040386130458366,0.007429520892260351,21.9392534805679,22.5242346663346,22.5242346663346,-65.66265239730839,-14.66021176724049,-1.0897836478685354
276,20271.511,0.345223031026253,0.345223031026253,0.36484303102625304,0.008040386130458366,0.008040386130458366,0.007429520892260351,21.9392534805679,22.5242346663346,22.5242346663346,-67.71317809587421,-14.582509869844671,-1.333635903467536
277,20280.354,0.345223031026253,0.345223031026253,0.36484303102625304,0.008040386130458366,0.008040386130458366,0.007429520892260351,21.9392534805679,22.5242346663346,22.5242346663346,-69.67866395120083,-14.481856755498997,-1.5463214639763845
278,20350.296,0.345223031026253,0.345223031026253,0.36484303102625304,0.008040386130458366,0.008040386130458366,0.007429520892260351,21.9392534805679,22.5242346663346,22.5242346663346,-70.60650936148157,-14.466253670743274,-1.4735337087447558
279,20379.642,0.345223031026253,0.345223031026253,0.36484303102625304,0.008040386130458366,0.008040386130458366,0.007429520892260351,21.9392534805679,22.5242346663346,22.5242346663346,-71.49407490468384,-14.43710435173554,-1.395029885611956
280,20431.129,0.345223031026253,0.345223031026253,0.36484303102625304,0.008040386130458366,0.008040386130458366,0.007429520892260351,21.9392534805679,22.5242346663346,22.5242346663346,-71.52541433118245,-14.442225900512854,-1.4720885940407
281,20476.872,0.345223031026253,0.345223031026253,0.36484303102625304,0.008040386130458366,0.008040386130458366,0.007429520892260351,21.9392534805679,22.5242346663346,22.5242346663346,-71.5545961746515,-14.437806341565267,-1.5425151337496916
282,20509.909,0.345223031026253,0.345223031026253,0.36484303102625304,0.008040386130458366,0.008040386130458366,0.007429520892260351,21.9392534805679,22.5242346663346,22.5242346663346,-71.7723019306612,-14.368733374380978,-1.7516441406935732
283,20576.159,0.345223031026253,0.345223031026253,0.36484303102625304,0.008040386130458366,0.008040386130458366,0.007429520892260351,21.9392534805679,22.5242346663346,22.5242346663346,-71.9805009708196,-14.306110583723255,-1.952388347100324
284,20588.687,0.345223031026253,0.345223031026253,0.36484303102625304,0.008040386130458366,0.008040386130458366,0.007429520892260351,21.9392534805679,22.5242346663346,22.5242346663346,-72.29667213795557,-14.273025836402875,-2.0720316573962445
285,20591.062,0.345223031026253,0.345223031026253,0.36484303102625304,0.008040386130458366,0.008040386130458366,0.007429520892260351,21.9392534805679,22.5242346663346,22.5242346663346,-72.60570304877325,-14.241148731863326,-2.193142829822184
286,20669.304,0.345223031026253,0.345223031026253,0.36484303102625304,0.008040386130458366,0.008040386130458366,0.007429520892260351,21.9392534805679,22.5242346663346,22.5242346663346,-72.8920850881636,-14.231715590587868,-2.2775214413976923
287,20676.098,0.345223031026253,0.345223031026253,0.36484303102625304,0.008040386130458366,0.008040386130458366,0.007429520892260351,21.9392534805679,22.5242346663346,22.5242346663346,-73.16721632690715,-14.220491946343627,-2.3564718115483783
288,20748.084,0.345223031026253,0.345223031026253,0.36484303102625304,0.008040386130458366,0.008040386130458366,0.007429520892260351,21.9392534805679,22.5242346663346,22.5242346663346,-73.525055224059,-14.278450875793029,-2.402664036351258
289,20775.378,0.345223031026253,0.345223031026253,0.36484303102625304,0.008040386130458366,0.008040386130458366,0.007429520892260351,21.9392534805679,22.5242346663346,22.5242346663346,-73.86630002495404,-14.332268397951161,-2.4453554216107816
290,20828.919,0.345223031026253,0.345223031026253,0.36484303102625304,0.008040386130458366,0.008040386130458366,0.007429520892260351,21.9392534805679,22.5242346663346,22.5242346663346,-74.13261198443331,-14.380694982100156,-2.402025664793694
291,20872.618,0.345223031026253,0.345223031026253,0.36484303102625304,0.008040386130458366,0.008040386130458366,0.007429520892260351,21.9392534805679,22.5242346663346,22.5242346663346,-74.38900119733384,-14.416583057554744,-2.3562775233870186
292,20907.699,0.345223031026253,0.345223031026253,0.36484303102625304,0.008040386130458366,0.008040386130458366,0.007429520892260351,21.9392534805679,22.5242346663346,22.5242346663346,-74.9740671450285,-14.404384615114719,-2.440602843649979
293,20971.907,0.345223031026253,0.345223031026253,0.36484303102625304,0.008040386130458366,0.008040386130458366,0.007429520892260351,21.9392534805679,22.5242346663346,22.5242346663346,-75.53595446700851,-14.409106302484918,-2.524097848075735
294,20986.484,0.345223031026253,0.345223031026253,0.36484303102625304,0.008040386130458366,0.008040386130458366,0.007429520892260351,21.9392534805679,22.5242346663346,22.5242346663346,-75.62069144377894,-14.416061285268036,-2.7504161166371786
295,21067.086,0.345223031026253,0.345223031026253,0.36484303102625304,0.008040386130458366,0.008040386130458366,0.007429520892260351,21.9392534805679,22.5242346663346,22.5242346663346,-75.69063417702979,-14.418099400624017,-2.9707352394491977
296,21071.829,0.345223031026253,0.345223031026253,0.36484303102625304,0.008040386130458366,0.008040386130458366,0.007429520892260351,21.9392534805679,22.5242346663346,22.5242346663346,-75.754914416132,-14.427211742443726,-3.1851632139403727
297,21145.868,0.345223031026253,0.345223031026253,0.36484303102625304,0.008040386130458366,0.008040386130458366,0.007429520892260351,21.9392534805679,22.5242346663346,22.5242346663346,-76.02123359553029,-14.34081955737161,-3.4698138356160335
298,21171.115,0.345223031026253,0.345223031026253,0.36484303102625304,0.008040386130458366,0.008040386130458366,0.007429520892260351,21.9392534805679,22.5242346663346,22.5242346663346,-76.28058173569248,-14.270944275853717,-3.745750517384176
299,21226.709,0.345223031026253,0.345223031026253,0.36484303102625304,0.008040386130458366,0.008040386130458366,0.007429520892260351,21.9392534805679,22.5242346663346,22.5242346663346,-76.40677088524156,-14.34186209059851,-3.916398536179896
300,21268.357,0.345223031026253,0.345223031026253,0.36484303102625304,0.008040386130458366,0.008040386130458366,0.007429520892260351,21.9392534805679,22.5242346663346,22.5242346663346,-76.53231295370517,-14.387340447742726,-4.074906345512787
301,21305.485,0.345223031026253,0.345223031026253,0.36484303102625304,0.008040386130458366,0.008040386130458366,0.007429520892260351,21.9392534805679,22.5242346663346,22.5242346663346,-76.17817636316555,-14.552244432452797,-3.9202313892006564
302,21367.637,0.345223031026253,0.345223031026253,0.36484303102625304,0.008040386130458366,0.008040386130458366,0.007429520892260351,21.9392534805679,22.5242346663346,22.5242346663346,-75.82305254989237,-14.613654908543053,-3.748807965265687
303,21384.266,0.345223031026253,0.345223031026253,0.36484303102625304,0.008040386130458366,0.008040386130458366,0.007429520892260351,21.9392534805679,22.5242346663346,22.5242346663346,-76.3010495213389,-14.417118481740523,-3.8645641107775743
304,21464.871,0.345223031026253,0.345223031026253,0.36484303102625304,0.008040386130458366,0.008040386130458366,0.007429520892260351,21.9392534805679,22.5242346663346,22.5242346663346,-76.05863988052614,-14.299040101248368,-4.090608659937014
305,21467.565,0.345223031026253,0.345223031026253,0.36484303102625304,0.008040386130458366,0.008040386130458366,0.007429520892260351,21.9392534805679,22.5242346663346,22.5242346663346,-75.83361920746408,-14.229000246181695,-4.319597632182729
306,21543.662,0.345223031026253,0.345223031026253,0.36484303102625304,0.008040386130458366,0.008040386130458366,0.007429520892260351,21.9392534805679,22.5242346663346,22.5242346663346,-75.60656645804666,-14.232916215370809,-4.882742871088447
307,21564.807,0.345223031026253,0.345223031026253,0.36484303102625304,0.008040386130458366,0.008040386130458366,0.007429520892260351,21.9392534805679,22.5242346663346,22.5242346663346,-75.37369464603731,-14.312592764324103,-5.454272345216957
308,21622.437,0.345223031026253,0.345223031026253,0.36484303102625304,0.008040386130458366,0.008040386130458366,0.007429520892260351,21.9392534805679,22.5242346663346,22.5242346663346,-75.45021978752317,-14.416161986612279,-5.870600796063134
309,21664.09,0.345223031026253,0.345223031026253,0.36484303102625304,0.008040386130458366,0.008040386130458366,0.007429520892260351,21.9392534805679,22.5242346663346,22.5242346663346,-75.52362117973531,-14.482078826042718,-6.266493842478685
310,21703.269,0.345223031026253,0.345223031026253,0.36484303102625304,0.008040386130458366,0.008040386130458366,0.007429520892260351,21.9392534805679,22.5242346663346,22.5242346663346,-75.03237101647238,-14.452971416884736,-6.219578812978588
311,21763.375,0.345223031026253,0.345223031026253,0.36484303102625304,0.008040386130458366,0.008040386130458366,0.007429520892260351,21.9392534805679,22.5242346663346,22.5242346663346,-74.5784287315708,-14.272893412340858,-6.1284506084318595
312,21782.055,0.345223031026253,0.345223031026253,0.36484303102625304,0.008040386130458366,0.008040386130458366,0.007429520892260351,21.9392534805679,22.5242346663346,22.5242346663346,-74.02780466440987,-14.080399480404282,-6.193150771212418
313,21860.614,0.345223031026253,0.345223031026253,0.36484303102625304,0.008040386130458366,0.008040386130458366,0.007429520892260351,21.9392534805679,22.5242346663346,22.5242346663346,-74.58204569138859,-13.834124998714271,-6.70405793695303
314,21862.989,0.345223031026253,0.345223031026253,0.36484303102625304,0.008040386130458366,0.008040386130458366,0.007429520892260351,21.9392534805679,22.5242346663346,22.5242346663346,-75.0711161297382,-13.756971700382667,-7.260240246740055
315,21941.445,0.345223031026253,0.345223031026253,0.36484303102625304,0.008040386130458366,0.008040386130458366,0.007429520892260351,21.9392534805679,22.5242346663346,22.5242346663346,-75.88323919127096,-13.648403510858822,-8.03385824491612
316,21960.538,0.345223031026253,0.345223031026253,0.36484303102625304,0.008040386130458366,0.008040386130458366,0.007429520892260351,21.9392534805679,22.5242346663346,22.5242346663346,-76.66571130374071,-13.515391882688597,-8.784919661041378
317,22020.218,0.345223031026253,0.345223031026253,0.36484303102625304,0.008040386130458366,0.008040386130458366,0.007429520892260351,21.9392534805679,22.5242346663346,22.5242346663346,-77.2984019885656,-13.257557472152719,-9.196685098036149
318,22059.822,0.345223031026253,0.345223031026253,0.36484303102625304,0.008040386130458366,0.008040386130458366,0.007429520892260351,21.9392534805679,22.5242346663346,22.5242346663346,-77.92217180563696,-12.847551663821896,-9.558355826876454
319,22101.052,0.345223031026253,0.345223031026253,0.36484303102625304,0.008040386130458366,0.008040386130458366,0.007429520892260351,21.9392534805679,22.5242346663346,22.5242346663346,-77.47201374872482,-12.466025531526519,-9.65197591232997
320,22159.11,0.345223031026253,0.345223031026253,0.36484303102625304,0.008040386130458366,0.008040386130458366,0.007429520892260351,21.9392534805679,22.5242346663346,22.5242346663346,-77.03791238834467,-12.06237165766514,-9.726657579856276
321,22179.837,0.345223031026253,0.345223031026253,0.36484303102625304,0.008040386130458366,0.008040386130458366,0.007429520892260351,21.9392534805679,22.5242346663346,22.5242346663346,-76.54043417648653,-11.661514606817091,-9.803464129847175
322,22258.394,0.345223031026253,0.345223031026253,0.36484303102625304,0.008040386130458366,0.008040386130458366,0.007429520892260351,21.9392534805679,22.5242346663346,22.5242346663346,-75.27003717797066,-11.448905093481791,-9.903913836970235
323,22339.224,0.345223031026253,0.345223031026253,0.36484303102625304,0.008040386130458366,0.008040386130458366,0.007429520892260351,21.9392534805679,22.5242346663346,22.5242346663346,-74.62608257380862,-11.148383673267992,-9.833837088893855
324,22356.268,0.345223031026253,0.345223031026253,0.36484303102625304,0.008040386130458366,0.008040386130458366,0.007429520892260351,21.9392534805679,22.5242346663346,22.5242346663346,-73.98545253071222,-10.93750064535596,-9.776602076251454
325,22418.004,0.345223031026253,0.345223031026253,0.36484303102625304,0.008040386130458366,0.008040386130458366,0.007429520892260351,21.9392534805679,22.5242346663346,22.5242346663346,-74.04841497273577,-10.615958499629587,-9.197718693905458
326,22455.56,0.345223031026253,0.345223031026253,0.36484303102625304,0.008040386130458366,0.008040386130458366,0.007429520892260351,21.9392534805679,22.5242346663346,22.5242346663346,-74.09658128645324,-10.30404228166435,-8.614366181899774
327,22496.788,0.345223031026253,0.345223031026253,0.36484303102625304,0.008040386130458366,0.008040386130458366,0.007429520892260351,21.9392534805679,22.5242346663346,22.5242346663346,-73.95544544573005,-10.167411328171882,-8.115254536645299
328,22554.843,0.345223031026253,0.345223031026253,0.36484303102625304,0.008040386130458366,0.008040386130458366,0.007429520892260351,21.9392534805679,22.5242346663346,22.5242346663346,-73.85722730740676,-10.192185431608555,-7.65117621123562
329,22577.621,0.345223031026253,0.345223031026253,0.36484303102625304,0.008040386130458366,0.008040386130458366,0.007429520892260351,21.9392534805679,22.5242346663346,22.5242346663346,-72.50801263938556,-10.44571556308253,-8.217060898905645
330,22654.127,0.345223031026253,0.345223031026253,0.36484303102625304,0.008040386130458366,0.008040386130458366,0.007429520892260351,21.9392534805679,22.5242346663346,22.5242346663346,-71.14249404858194,-10.769337312472823,-8.824832544430487
331,22656.402,0.345223031026253,0.345223031026253,0.36484303102625304,0.008040386130458366,0.008040386130458366,0.007429520892260351,21.9392534805679,22.5242346663346,22.5242346663346,-69.43045027823331,-10.943685140160468,-9.247927406048536
332,22737.005,0.345223031026253,0.345223031026253,0.36484303102625304,0.008040386130458366,0.008040386130458366,0.007429520892260351,21.9392534805679,22.5242346663346,22.5242346663346,-67.86288503958765,-10.941218206287129,-9.53046428716989
333,22752.008,0.345223031026253,0.345223031026253,0.36484303102625304,0.008040386130458366,0.008040386130458366,0.007429520892260351,21.9392534805679,22.5242346663346,22.5242346663346,-66.34910930300387,-10.860766026542313,-9.778374553838677
334,22815.786,0.345223031026253,0.345223031026253,0.36484303102625304,0.008040386130458366,0.008040386130458366,0.007429520892260351,21.9392534805679,22.5242346663346,22.5242346663346,-64.87778673518744,-10.724993195770711,-10.02400023322152
335,22851.289,0.345223031026253,0.345223031026253,0.36484303102625304,0.008040386130458366,0.008040386130458366,0.007429520892260351,21.9392534805679,22.5242346663346,22.5242346663346,-63.42773981281985,-10.595611805309712,-10.26747348783493
336,22894.568,0.345223031026253,0.345223031026253,0.36484303102625304,0.008040386130458366,0.008040386130458366,0.007429520892260351,21.9392534805679,22.5242346663346,22.5242346663346,-62.01771715750422,-10.388139795062015,-10.464871498673515
337,22950.576,0.345223031026253,0.345223031026253,0.36484303102625304,0.008040386130458366,0.008040386130458366,0.007429520892260351,21.9392534805679,22.5242346663346,22.5242346663346,-60.63465867263623,-10.195982663639747,-10.65959051905675
338,22975.405,0.345223031026253,0.345223031026253,0.36484303102625304,0.008040386130458366,0.008040386130458366,0.007429520892260351,21.9392534805679,22.5242346663346,22.5242346663346,-59.06590067568065,-10.000510700753372,-10.92150521208294
339,23047.811,0.345223031026253,0.345223031026253,0.36484303102625304,0.008040386130458366,0.008040386130458366,0.007429520892260351,21.9392534805679,22.5242346663346,22.5242346663346,-57.534623389748134,-9.802343010148,-11.171934074949482
340,23054.19,0.345223031026253,0.345223031026253,0.36484303102625304,0.008040386130458366,0.008040386130458366,0.007429520892260351,21.9392534805679,22.5242346663346,22.5242346663346,-55.88526232059291,-9.587301165940845,-11.381163921190003
341,23132.735,0.345223031026253,0.345223031026253,0.36484303102625304,0.008040386130458366,0.008040386130458366,0.007429520892260351,21.9392534805679,22.5242346663346,22.5242346663346,-54.48025128051178,-9.334168773848354,-11.518594377048647
342,23147.73,0.345223031026253,0.345223031026253,0.36484303102625304,0.008040386130458366,0.008040386130458366,0.007429520892260351,21.9392534805679,22.5242346663346,22.5242346663346,-53.111416339611125,-9.089292715142616,-11.64640884972811
343,23213.564,0.345223031026253,0.345223031026253,0.36484303102625304,0.008040386130458366,0.008040386130458366,0.007429520892260351,21.9392534805679,22.5242346663346,22.5242346663346,-51.44112836753155,-8.8745223640935,-11.821495079074161
344,23247.011,0.345223031026253,0.345223031026253,0.36484303102625304,0.008040386130458366,0.008040386130458366,0.007429520892260351,21.9392534805679,22.5242346663346,22.5242346663346,-49.821514307652365,-8.671753261761967,-11.99197524723929
345,23292.35,0.345223031026253,0.345223031026253,0.36484303102625304,0.008040386130458366,0.008040386130458366,0.007429520892260351,21.9392534805679,22.5242346663346,22.5242346663346,-48.211980897793765,-8.450045381635544,-12.178268584093365
346,23344.25,0.345223031026253,0.345223031026253,0.36484303102625304,0.008040386130458366,0.008040386130458366,0.007429520892260351,21.9392534805679,22.5242346663346,22.5242346663346,-46.64711485088547,-8.244390769677526,-12.365917955506013
347,23371.137,0.345223031026253,0.345223031026253,0.36484303102625304,0.008040386130458366,0.008040386130458366,0.007429520892260351,21.9392534805679,22.5242346663346,22.5242346663346,-45.05926483931109,-8.047390138835237,-12.58179274822594
348,23443.532,0.345223031026253,0.345223031026253,0.36484303102625304,0.008040386130458366,0.008040386130458366,0.007429520892260351,21.9392534805679,22.5242346663346,22.5242346663346,-43.52019253907724,-7.855210070704075,-12.791756227994506
349,23451.96,0.345223031026253,0.345223031026253,0.36484303102625304,0.008040386130458366,0.008040386130458366,0.007429520892260351,21.9392534805679,22.5242346663346,22.5242346663346,-42.04544600066836,-7.666449423596034,-12.99973013803673
350,23530.51,0.345223031026253,0.345223031026253,0.36484303102625304,0.008040386130458366,0.008040386130458366,0.007429520892260351,21.9392534805679,22.5242346663346,22.5242346663346,-40.627462331776314,-7.4828513522470415,-13.115790357573928
351,23543.453,0.345223031026253,0.345223031026253,0.36484303102625304,0.008040386130458366,0.008040386130458366,0.007429520892260351,21.9392534805679,22.5242346663346,22.5242346663346,-39.26608070159541,-7.3019571684973705,-13.219153310149332
352,23611.34,0.345223031026253,0.345223031026253,0.36484303102625304,0.008040386130458366,0.008040386130458366,0.007429520892260351,21.9392534805679,22.5242346663346,22.5242346663346,-37.8100650810328,-7.071952715362569,-13.403178849651304
353,23642.735,0.345223031026253,0.345223031026253,0.36484303102625304,0.008040386130458366,0.008040386130458366,0.007429520892260351,21.9392534805679,22.5242346663346,22.5242346663346,-36.399113444538976,-6.858549657378106,-13.594771441814771
354,23690.121,0.345223031026253,0.345223031026253,0.36484303102625304,0.008040386130458366,0.008040386130458366,0.007429520892260351,21.9392534805679,22.5242346663346,22.5242346663346,-34.981738021829635,-6.633400085444427,-13.82503844460838
355,23739.967,0.345223031026253,0.345223031026253,0.36484303102625304,0.008040386130458366,0.008040386130458366,0.007429520892260351,21.9392534805679,22.5242346663346,22.5242346663346,-33.6074975194476,-6.411634186037405,-14.049297299066904
356,23768.906,0.345223031026253,0.345223031026253,0.36484303102625304,0.008040386130458366,0.008040386130458366,0.007429520892260351,21.9392534805679,22.5242346663346,22.5242346663346,-32.26531150828851,-6.2036969687695205,-14.211604020214965
357,23839.257,0.345223031026253,0.345223031026253,0.36484303102625304,0.008040386130458366,0.008040386130458366,0.007429520892260351,21.9392534805679,22.5242346663346,22.5242346663346,-30.97804398950135,-5.990313805970283,-14.348780319347362
358,23849.733,0.345223031026253,0.345223031026253,0.36484303102625304,0.008040386130458366,0.008040386130458366,0.007429520892260351,21.9392534805679,22.5242346663346,22.5242346663346,-29.66971857476573,-5.738327027973687,-14.523890276314198
359,23928.287,0.345223031026253,0.345223031026253,0.36484303102625304,0.008040386130458366,0.008040386130458366,0.007429520892260351,21.9392534805679,22.5242346663346,22.5242346663346,-28.435190394944936,-5.504651310290193,-14.672940600455881
360,23939.181,0.345223031026253,0.345223031026253,0.36484303102625304,0.008040386130458366,0.008040386130458366,0.007429520892260351,21.9392534805679,22.5242346663346,22.5242346663346,-27.250455076257296,-5.274661127655676,-14.808402036904818
361,24007.071,0.345223031026253,0.345223031026253,0.36484303102625304,0.008040386130458366,0.008040386130458366,0.007429520892260351,21.9392534805679,22.5242346663346,22.5242346663346,-26.02082441360847,-5.01758487290945,-15.000035465570003
362,24009.446,0.345223031026253,0.345223031026253,0.36484303102625304,0.008040386130458366,0.008040386130458366,0.007429520892260351,21.9392534805679,22.5242346663346,22.5242346663346,-24.84132822348907,-4.7763747557633875,-15.188072581432117
363,24036.423,0.345223031026253,0.345223031026253,0.36484303102625304,0.008040386130458366,0.008040386130458366,0.007429520892260351,21.9392534805679,22.5242346663346,22.5242346663346,-23.704886893504945,-4.538281503915413,-15.364035798254898
364,24087.914,0.345223031026253,0.345223031026253,0.36484303102625304,0.008040386130458366,0.008040386130458366,0.007429520892260351,21.9392534805679,22.5242346663346,22.5242346663346,-22.585199431273992,-4.31380509049114,-15.503262688993157
365,24135.713,0.345223031026253,0.345223031026253,0.36484303102625304,0.008040386130458366,0.008040386130458366,0.007429520892260351,21.9392534805679,22.5242346663346,22.5242346663346,-21.510985467838353,-4.090834248345384,-15.623633448260641
366,24166.698,0.345223031026253,0.345223031026253,0.36484303102625304,0.008040386130458366,0.008040386130458366,0.007429520892260351,21.9392534805679,22.5242346663346,22.5242346663346,-20.512586571832003,-3.9065917628496236,-15.673620826898544
367,24234.999,0.345223031026253,0.345223031026253,0.36484303102625304,0.008040386130458366,0.008040386130458366,0.007429520892260351,21.9392534805679,22.5242346663346,22.5242346663346,-19.563619167716684,-3.724888103544422,-15.70260003814663
368,24247.526,0.345223031026253,0.345223031026253,0.36484303102625304,0.008040386130458366,0.008040386130458366,0.007429520892260351,21.9392534805679,22.5242346663346,22.5242346663346,-18.652380167167678,-3.4930761666884997,-15.79541422509521
369,24326.078,0.345223031026253,0.345223031026253,0.36484303102625304,0.008040386130458366,0.008040386130458366,0.007429520892260351,21.9392534805679,22.5242346663346,22.5242346663346,-17.845310707122845,-3.3390483604858536,-15.872966646405853
370,24334.921,0.345223031026253,0.345223031026253,0.36484303102625304,0.008040386130458366,0.008040386130458366,0.007429520892260351,21.9392534805679,22.5242346663346,22.5242346663346,-17.071144331623284,-3.187998082342998,-15.939868293054992
371,24404.863,0.345223031026253,0.345223031026253,0.36484303102625304,0.008040386130458366,0.008040386130458366,0.007429520892260351,21.9392534805679,22.5242346663346,22.5242346663346,-16.39590165768899,-3.0857994663645743,-15.97729763290927
372,24432.16,0.345223031026253,0.345223031026253,0.36484303102625304,0.008040386130458366,0.008040386130458366,0.007429520892260351,21.9392534805679,22.5242346663346,22.5242346663346,-15.750632990145428,-2.985222153708921,-16.00374306134523
373,24485.699,0.345223031026253,0.345223031026253,0.36484303102625304,0.008040386130458366,0.008040386130458366,0.007429520892260351,21.9392534805679,22.5242346663346,22.5242346663346,-15.015195723167535,-2.852145152375251,-16.03931269204384
374,24531.446,0.345223031026253,0.345223031026253,0.36484303102625304,0.008040386130458366,0.008040386130458366,0.007429520892260351,21.9392534805679,22.5242346663346,22.5242346663346,-14.309004551340639,-2.724493824707409,-16.073853016385122
375,24564.472,0.345223031026253,0.345223031026253,0.36484303102625304,0.008040386130458366,0.008040386130458366,0.007429520892260351,21.9392534805679,22.5242346663346,22.5242346663346,-13.471621572938728,-2.5793857281111285,-15.953682040773108
376,24630.722,0.345223031026253,0.345223031026253,0.36484303102625304,0.008040386130458366,0.008040386130458366,0.007429520892260351,21.9392534805679,22.5242346663346,22.5242346663346,-12.66874194598783,-2.440241793019329,-15.82267104288572
377,24643.25,0.345223031026253,0.345223031026253,0.36484303102625304,0.008040386130458366,0.008040386130458366,0.007429520892260351,21.9392534805679,22.5242346663346,22.5242346663346,-11.755134261762988,-2.28791548879446,-15.302913631401717
378,24723.86,0.345223031026253,0.345223031026253,0.36484303102625304,0.008040386130458366,0.008040386130458366,0.007429520892260351,21.9392534805679,22.5242346663346,22.5242346663346,-11.40913887003516,-2.0760774432286775,-15.019055899514985
379,24728.604,0.345223031026253,0.345223031026253,0.36484303102625304,0.008040386130458366,0.008040386130458366,0.007429520892260351,21.9392534805679,22.5242346663346,22.5242346663346,-11.076437966953684,-1.8775938929249114,-14.749700640016465
380,24802.643,0.345223031026253,0.345223031026253,0.36484303102625304,0.008040386130458366,0.008040386130458366,0.007429520892260351,21.9392534805679,22.5242346663346,22.5242346663346,-10.42201709593551,-1.780875704218451,-14.89536873207891
381,24827.886,0.345223031026253,0.345223031026253,0.36484303102625304,0.008040386130458366,0.008040386130458366,0.007429520892260351,21.9392534805679,22.5242346663346,22.5242346663346,-9.792552812902793,-1.6873902838057073,-15.040192820714894
382,24883.474,0.345223031026253,0.345223031026253,0.36484303102625304,0.008040386130458366,0.008040386130458366,0.007429520892260351,21.9392534805679,22.5242346663346,22.5242346663346,-9.152609577683705,-1.8346832100008705,-15.177133623074939
383,24927.168,0.345223031026253,0.345223031026253,0.36484303102625304,0.008040386130458366,0.008040386130458366,0.007429520892260351,21.9392534805679,22.5242346663346,22.5242346663346,-8.545018940087912,-1.9697530801557526,-15.289764010688451
384,24962.25,0.345223031026253,0.345223031026253,0.36484303102625304,0.008040386130458366,0.008040386130458366,0.007429520892260351,21.9392534805679,22.5242346663346,22.5242346663346,-8.200576373218873,-2.0098346539334195,-15.30384538307473
385,25026.457,0.345223031026253,0.345223031026253,0.36484303102625304,0.008040386130458366,0.008040386130458366,0.007429520892260351,21.9392534805679,22.5242346663346,22.5242346663346,-7.867613887578809,-2.047981570967607,-15.325211455257485
386,25041.032,0.345223031026253,0.345223031026253,0.36484303102625304,0.008040386130458366,0.008040386130458366,0.007429520892260351,21.9392534805679,22.5242346663346,22.5242346663346,-7.425680626120964,-2.0375620635235,-15.330035240276993
387,25121.635,0.345223031026253,0.345223031026253,0.36484303102625304,0.008040386130458366,0.008040386130458366,0.007429520892260351,21.9392534805679,22.5242346663346,22.5242346663346,-6.842059418118198,-1.7776830016896568,-15.383040619465804
388,25124.328,0.345223031026253,0.345223031026253,0.36484303102625304,0.008040386130458366,0.008040386130458366,0.007429520892260351,21.9392534805679,22.5242346663346,22.5242346663346,-6.285500777640163,-1.5323585262966415,-15.456484467585039
389,25200.421,0.345223031026253,0.345223031026253,0.36484303102625304,0.008040386130458366,0.008040386130458366,0.007429520892260351,21.9392534805679,22.5242346663346,22.5242346663346,-5.877270086044123,-1.225493624910633,-15.318196690825273
390,25223.616,0.345223031026253,0.345223031026253,0.36484303102625304,0.008040386130458366,0.008040386130458366,0.007429520892260351,21.9392534805679,22.5242346663346,22.5242346663346,-5.4864740844170266,-0.933527110759449,-15.183023079009832
391,25279.199,0.345223031026253,0.345223031026253,0.36484303102625304,0.008040386130458366,0.008040386130458366,0.007429520892260351,21.9392534805679,22.5242346663346,22.5242346663346,-5.305189792702845,-0.6335948522587179,-14.942507463658044
392,25322.898,0.345223031026253,0.345223031026253,0.36484303102625304,0.008040386130458366,0.008040386130458366,0.007429520892260351,21.9392534805679,22.5242346663346,22.5242346663346,-5.131101671275184,-0.3460089804396241,-14.691014806778751
393,25360.025,0.345223031026253,0.345223031026253,0.36484303102625304,0.008040386130458366,0.008040386130458366,0.007429520892260351,21.9392534805679,22.5242346663346,22.5242346663346,-5.067485763843058,-0.1507017813873129,-14.741309708581053
394,25422.178,0.345223031026253,0.345223031026253,0.36484303102625304,0.008040386130458366,0.008040386130458366,0.007429520892260351,21.9392534805679,22.5242346663346,22.5242346663346,-5.004979667285284,0.03457111471619271,-14.778707584006444
395,25438.807,0.345223031026253,0.345223031026253,0.36484303102625304,0.008040386130458366,0.008040386130458366,0.007429520892260351,21.9392534805679,22.5242346663346,22.5242346663346,-4.989360853989977,-0.06707030343901937,-14.830023085730607
396,25519.417,0.345223031026253,0.345223031026253,0.36484303102625304,0.008040386130458366,0.008040386130458366,0.007429520892260351,21.9392534805679,22.5242346663346,22.5242346663346,-5.146303799393671,-0.16379350643790436,-14.862401746909963
397,25598.19,0.345223031026253,0.345223031026253,0.36484303102625304,0.008040386130458366,0.008040386130458366,0.007429520892260351,21.9392534805679,22.5242346663346,22.5242346663346,-5.379920776821224,-0.22702613309684788,-14.985246679035884
398,25619.335,0.345223031026253,0.345223031026253,0.36484303102625304,0.008040386130458366,0.008040386130458366,0.007429520892260351,21.9392534805679,22.5242346663346,22.5242346663346,-5.60291566836648,-0.28801108279292936,-15.097516455019365
399,25676.967,0.345223031026253,0.345223031026253,0.36484303102625304,0.008040386130458366,0.008040386130458366,0.007429520892260351,21.9392534805679,22.5242346663346,22.5242346663346,-5.796091988701202,-0.4547058615489288,-15.521423034576856
400,25718.62,0.345223031026253,0.345223031026253,0.36484303102625304,0.008040386130458366,0.008040386130458366,0.007429520892260351,21.9392534805679,22.5242346663346,22.5242346663346,-5.9794439236141,-0.6157798532172213,-15.941762690683543
401,25757.8,0.345223031026253,0.345223031026253,0.36484303102625304,0.008040386130458366,0.008040386130458366,0.007429520892260351,21.9392534805679,22.5242346663346,22.5242346663346,-6.222082825672125,-0.7062660150761111,-16.473613394010215
402,25817.908,0.345223031026253,0.345223031026253,0.36484303102625304,0.008040386130458366,0.008040386130458366,0.007429520892260351,21.9392534805679,22.5242346663346,22.5242346663346,-6.452438881681595,-0.7959854284415634,-17.00988854329535
403,25836.585,0.345223031026253,0.345223031026253,0.36484303102625304,0.008040386130458366,0.008040386130458366,0.007429520892260351,21.9392534805679,22.5242346663346,22.5242346663346,-6.507149310061475,-0.9504419542149672,-17.217357931548996
404,25915.138,0.345223031026253,0.345223031026253,0.36484303102625304,0.008040386130458366,0.008040386130458366,0.007429520892260351,21.9392534805679,22.5242346663346,22.5242346663346,-6.495304348343754,-1.1258649217317116,-17.819750004643556
405,25995.966,0.345223031026253,0.345223031026253,0.36484303102625304,0.008040386130458366,0.008040386130458366,0.007429520892260351,21.9392534805679,22.5242346663346,22.5242346663346,-6.2529339997748945,-1.2346262876074112,-18.77837824348243
406,26015.061,0.345223031026253,0.345223031026253,0.36484303102625304,0.008040386130458366,0.008040386130458366,0.007429520892260351,21.9392534805679,22.5242346663346,22.5242346663346,-6.016862175961252,-1.3381096935012915,-19.75207686933526
407,26074.738,0.345223031026253,0.345223031026253,0.36484303102625304,0.008040386130458366,0.008040386130458366,0.007429520892260351,21.9392534805679,22.5242346663346,22.5242346663346,-5.600126051934974,-1.645095362759155,-21.113566853981446
408,26114.342,0.345223031026253,0.345223031026253,0.36484303102625304,0.008040386130458366,0.008040386130458366,0.007429520892260351,21.9392534805679,22.5242346663346,22.5242346663346,-5.196364362781985,-1.9282618645851606,-22.46152693364027
409,26153.52,0.345223031026253,0.345223031026253,0.36484303102625304,0.008040386130458366,0.008040386130458366,0.007429520892260351,21.9392534805679,22.5242346663346,22.5242346663346,-5.008619965705404,-2.39025016475135,-23.867908360909542
410,26213.626,0.345223031026253,0.345223031026253,0.36484303102625304,0.008040386130458366,0.008040386130458366,0.007429520892260351,21.9392534805679,22.5242346663346,22.5242346663346,-4.814555969251538,-2.8295069777121484,-25.262607947383188
411,26234.354,0.345223031026253,0.345223031026253,0.36484303102625304,0.008040386130458366,0.008040386130458366,0.007429520892260351,21.9392534805679,22.5242346663346,22.5242346663346,-5.129061439077153,-3.491275568372027,-26.619675271718886
412,26310.863,0.345223031026253,0.345223031026253,0.36484303102625304,0.008040386130458366,0.008040386130458366,0.007429520892260351,21.9392534805679,22.5242346663346,22.5242346663346,-5.413525434621714,-4.134253745945736,-27.9672721172393
413,26313.139,0.345223031026253,0.345223031026253,0.36484303102625304,0.008040386130458366,0.008040386130458366,0.007429520892260351,21.9392534805679,22.5242346663346,22.5242346663346,-5.162859251673306,-4.413214083136705,-29.59379996304073
414,26393.735,0.345223031026253,0.345223031026253,0.36484303102625304,0.008040386130458366,0.008040386130458366,0.007429520892260351,21.9392534805679,22.5242346663346,22.5242346663346,-4.924716908454832,-4.526381709288073,-31.690812651716644
415,26410.786,0.345223031026253,0.345223031026253,0.36484303102625304,0.008040386130458366,0.008040386130458366,0.007429520892260351,21.9392534805679,22.5242346663346,22.5242346663346,-4.694589231042992,-4.631019093919564,-33.805915358748514
416,26472.517,0.345223031026253,0.345223031026253,0.36484303102625304,0.008040386130458366,0.008040386130458366,0.007429520892260351,21.9392534805679,22.5242346663346,22.5242346663346,-3.66732782332058,-4.782937682793625,-35.949806999703995
417,26510.071,0.345223031026253,0.345223031026253,0.36484303102625304,0.008040386130458366,0.008040386130458366,0.007429520892260351,21.9392534805679,22.5242346663346,22.5242346663346,-2.6755895737245914,-4.898789412142243,-38.076610376792864
418,26551.302,0.345223031026253,0.345223031026253,0.36484303102625304,0.008040386130458366,0.008040386130458366,0.007429520892260351,21.9392534805679,22.5242346663346,22.5242346663346,-2.7537535815072034,-5.130952418452305,-40.52962854518283
419,26609.359,0.345223031026253,0.345223031026253,0.36484303102625304,0.008040386130458366,0.008040386130458366,0.007429520892260351,21.9392534805679,22.5242346663346,22.5242346663346,-2.8137753647721264,-5.367156863832639,-43.093855756958156
420,26632.137,0.345223031026253,0.345223031026253,0.36484303102625304,0.008040386130458366,0.008040386130458366,0.007429520892260351,21.9392534805679,22.5242346663346,22.5242346663346,-3.144339969145038,-5.6525800243805975,-45.79904379562896
421,26706.591,0.345223031026253,0.345223031026253,0.36484303102625304,0.008040386130458366,0.008040386130458366,0.007429520892260351,21.9392534805679,22.5242346663346,22.5242346663346,-3.442559608807131,-5.949573553553101,-48.557843033410215
422,26710.917,0.345223031026253,0.345223031026253,0.36484303102625304,0.008040386130458366,0.008040386130458366,0.007429520892260351,21.9392534805679,22.5242346663346,22.5242346663346,-3.747967777861829,-5.800580043474537,-51.67946744134135
423,26789.467,0.345223031026253,0.345223031026253,0.36484303102625304,0.008040386130458366,0.008040386130458366,0.007429520892260351,21.9392534805679,22.5242346663346,22.5242346663346,-3.3332857022575877,-5.159023820813771,-54.05946457528134
424,26806.52,0.345223031026253,0.345223031026253,0.36484303102625304,0.008040386130458366,0.008040386130458366,0.007429520892260351,21.9392534805679,22.5242346663346,22.5242346663346,-2.9713410498654236,-4.534710440136768,-56.3547978182959
425,26870.304,0.345223031026253,0.345223031026253,0.36484303102625304,0.008040386130458366,0.008040386130458366,0.007429520892260351,21.9392534805679,22.5242346663346,22.5242346663346,-2.585302589081046,-3.8091488312655533,-58.485518645219145
426,26905.807,0.345223031026253,0.345223031026253,0.36484303102625304,0.008040386130458366,0.008040386130458366,0.007429520892260351,21.9392534805679,22.5242346663346,22.5242346663346,-2.241763955814381,-3.096662975111407,-60.58690745215354
427,26949.086,0.345223031026253,0.345223031026253,0.36484303102625304,0.008040386130458366,0.008040386130458366,0.007429520892260351,21.9392534805679,22.5242346663346,22.5242346663346,-2.2742719972465104,-2.810078468952554,-62.49721982659078
428,27005.08,0.345223031026253,0.345223031026253,0.36484303102625304,0.008040386130458366,0.008040386130458366,0.007429520892260351,21.9392534805679,22.5242346663346,22.5242346663346,-2.3159985850024136,-2.5394661882130127,-64.40180625039187
429,27027.86,0.345223031026253,0.345223031026253,0.36484303102625304,0.008040386130458366,0.008040386130458366,0.007429520892260351,21.9392534805679,22.5242346663346,22.5242346663346,-2.146518863229811,-2.2470013720531865,-66.25661198598713
430,27102.312,0.345223031026253,0.345223031026253,0.36484303102625304,0.008040386130458366,0.008040386130458366,0.007429520892260351,21.9392534805679,22.5242346663346,22.5242346663346,-1.993097162471839,-1.9627397071932895,-68.10146693295899
431,27108.696,0.345223031026253,0.345223031026253,0.36484303102625304,0.008040386130458366,0.008040386130458366,0.007429520892260351,21.9392534805679,22.5242346663346,22.5242346663346,-1.5767793380492838,-1.5720019078215275,-70.08560914008771
432,27187.248,0.345223031026253,0.345223031026253,0.36484303102625304,0.008040386130458366,0.008040386130458366,0.007429520892260351,21.9392534805679,22.5242346663346,22.5242346663346,-1.2658573787306742,-1.4086468890811108,-71.87936896806436
433,27202.244,0.345223031026253,0.345223031026253,0.36484303102625304,0.008040386130458366,0.008040386130458366,0.007429520892260351,21.9392534805679,22.5242346663346,22.5242346663346,-0.9688331711836368,-1.2414366355035418,-73.66845184561807
434,27268.081,0.345223031026253,0.345223031026253,0.36484303102625304,0.008040386130458366,0.008040386130458366,0.007429520892260351,21.9392534805679,22.5242346663346,22.5242346663346,-0.6776195356492885,-1.3507503491507098,-75.2865969106251
435,27301.525,0.345223031026253,0.345223031026253,0.36484303102625304,0.008040386130458366,0.008040386130458366,0.007429520892260351,21.9392534805679,22.5242346663346,22.5242346663346,-0.3984549869349467,-1.4452988298368756,-76.88621010197048
436,27346.865,0.345223031026253,0.345223031026253,0.36484303102625304,0.008040386130458366,0.008040386130458366,0.007429520892260351,21.9392534805679,22.5242346663346,22.5242346663346,-0.11604228508046362,-1.5301507988427745,-78.29993539648402
437,27400.816,0.345223031026253,0.345223031026253,0.36484303102625304,0.008040386130458366,0.008040386130458366,0.007429520892260351,21.9392534805679,22.5242346663346,22.5242346663346,0.15725377831853088,-1.6031715267874096,-79.70828956467038
438,27425.654,0.345223031026253,0.345223031026253,0.36484303102625304,0.008040386130458366,0.008040386130458366,0.007429520892260351,21.9392534805679,22.5242346663346,22.5242346663346,0.15371436602995814,-1.8998807150122576,-80.963565626831
439,27498.053,0.345223031026253,0.345223031026253,0.36484303102625304,0.008040386130458366,0.008040386130458366,0.007429520892260351,21.9392534805679,22.5242346663346,22.5242346663346,0.15846005582832984,-2.1833360002620994,-82.20829780295254
440,27506.478,0.345223031026253,0.345223031026253,0.36484303102625304,0.008040386130458366,0.008040386130458366,0.007429520892260351,21.9392534805679,22.5242346663346,22.5242346663346,-0.3094245977510337,-2.654011051077128,-83.44910372707939
441,27585.031,0.345223031026253,0.345223031026253,0.36484303102625304,0.008040386130458366,0.008040386130458366,0.007429520892260351,21.9392534805679,22.5242346663346,22.5242346663346,-0.7944677098651228,-2.948193366629614,-84.69510138716788
442,27597.974,0.345223031026253,0.345223031026253,0.36484303102625304,0.008040386130458366,0.008040386130458366,0.007429520892260351,21.9392534805679,22.5242346663346,22.5242346663346,-1.2522183858653477,-3.2390196491758623,-85.95256308111352
443,27663.815,0.345223031026253,0.345223031026253,0.36484303102625304,0.008040386130458366,0.008040386130458366,0.007429520892260351,21.9392534805679,22.5242346663346,22.5242346663346,-1.2043329772836702,-3.4440111305193093,-87.04617523217021
444,27666.19,0.345223031026253,0.345223031026253,0.36484303102625304,0.008040386130458366,0.008040386130458366,0.007429520892260351,21.9392534805679,22.5242346663346,22.5242346663346,-1.2148093550244479,-3.5068507613282747,-88.18229596503724
445,27697.268,0.345223031026253,0.345223031026253,0.36484303102625304,0.008040386130458366,0.008040386130458366,0.007429520892260351,21.9392534805679,22.5242346663346,22.5242346663346,-1.2271714979610544,-3.5684891211130467,-89.29553616124987
446,27744.659,0.345223031026253,0.345223031026253,0.36484303102625304,0.008040386130458366,0.008040386130458366,0.007429520892260351,21.9392534805679,22.5242346663346,22.5242346663346,-1.4664062963699467,-3.5886770321562627,-90.46177472437651
447,27796.559,0.345223031026253,0.345223031026253,0.36484303102625304,0.008040386130458366,0.008040386130458366,0.007429520892260351,21.9392534805679,22.5242346663346,22.5242346663346,-1.6954969503144899,-3.615135908219834,-91.64147948226659
448,27823.446,0.345223031026253,0.345223031026253,0.36484303102625304,0.008040386130458366,0.008040386130458366,0.007429520892260351,21.9392534805679,22.5242346663346,22.5242346663346,-1.6468804182941597,-3.3737885572936626,-92.72832617568794
449,27893.793,0.345223031026253,0.345223031026253,0.36484303102625304,0.008040386130458366,0.008040386130458366,0.007429520892260351,21.9392534805679,22.5242346663346,22.5242346663346,-1.6073903203672664,-3.1420061474610064,-93.7846733869217
450,27902.219,0.345223031026253,0.345223031026253,0.36484303102625304,0.008040386130458366,0.008040386130458366,0.007429520892260351,21.9392534805679,22.5242346663346,22.5242346663346,-1.455105399398453,-3.007934503223961,-94.52933373979336
451,27904.594,0.345223031026253,0.345223031026253,0.36484303102625304,0.008040386130458366,0.008040386130458366,0.007429520892260351,21.9392534805679,22.5242346663346,22.5242346663346,-1.2757573129205995,-2.921020211500492,-95.26590358974478
452,27982.831,0.345223031026253,0.345223031026253,0.36484303102625304,0.008040386130458366,0.008040386130458366,0.007429520892260351,21.9392534805679,22.5242346663346,22.5242346663346,-1.231759402888027,-2.9172997420935864,-95.95597011969286
453,27993.726,0.345223031026253,0.345223031026253,0.36484303102625304,0.008040386130458366,0.008040386130458366,0.007429520892260351,21.9392534805679,22.5242346663346,22.5242346663346,-1.1898821122538017,-2.9153687356720432,-96.65151722724976
454,28061.616,0.345223031026253,0.345223031026253,0.36484303102625304,0.008040386130458366,0.008040386130458366,0.007429520892260351,21.9392534805679,22.5242346663346,22.5242346663346,-1.2682015891826104,-2.732773844623787,-97.35832623868065
455,28093.013,0.345223031026253,0.345223031026253,0.36484303102625304,0.008040386130458366,0.008040386130458366,0.007429520892260351,21.9392534805679,22.5242346663346,22.5242346663346,-1.3460047886344533,-2.562143946436647,-98.07731343962838
456,28142.447,0.345223031026253,0.345223031026253,0.36484303102625304,0.008040386130458366,0.008040386130458366,0.007429520892260351,21.9392534805679,22.5242346663346,22.5242346663346,-1.6794820337496932,-2.5621050302615314,-98.45388020259186
457,28192.297,0.345223031026253,0.345223031026253,0.36484303102625304,0.008040386130458366,0.008040386130458366,0.007429520892260351,21.9392534805679,22.5242346663346,22.5242346663346,-1.99821890916369,-2.563694214838043,-98.8383705082876
458,28221.225,0.345223031026253,0.345223031026253,0.36484303102625304,0.008040386130458366,0.008040386130458366,0.007429520892260351,21.9392534805679,22.5242346663346,22.5242346663346,-1.9983193310228098,-2.56739585578524,-99.24825534575925
459,28289.53,0.345223031026253,0.345223031026253,0.36484303102625304,0.008040386130458366,0.008040386130458366,0.007429520892260351,21.9392534805679,22.5242346663346,22.5242346663346,-1.9995603878850627,-2.570262354518355,-99.64077819379585
460,28300.007,0.345223031026253,0.345223031026253,0.36484303102625304,0.008040386130458366,0.008040386130458366,0.007429520892260351,21.9392534805679,22.5242346663346,22.5242346663346,-1.8932881650567654,-2.6930659838983564,-99.9138072966716
461,28380.618,0.345223031026253,0.345223031026253,0.36484303102625304,0.008040386130458366,0.008040386130458366,0.007429520892260351,21.9392534805679,22.5242346663346,22.5242346663346,-1.7811605493757727,-2.700407491621819,-100.08446868037886
462,28389.461,0.345223031026253,0.345223031026253,0.36484303102625304,0.008040386130458366,0.008040386130458366,0.007429520892260351,21.9392534805679,22.5242346663346,22.5242346663346,-1.674122541816666,-2.7078205286267023,-100.24347509111065
463,28459.398,0.345223031026253,0.345223031026253,0.36484303102625304,0.008040386130458366,0.008040386130458366,0.007429520892260351,21.9392534805679,22.5242346663346,22.5242346663346,-1.5503346731684495,-2.5028659188952327,-100.2967951373731
464,28488.747,0.345223031026253,0.345223031026253,0.36484303102625304,0.008040386130458366,0.008040386130458366,0.007429520892260351,21.9392534805679,22.5242346663346,22.5242346663346,-1.4325139634966335,-2.3064094579220433,-100.3432677888427
465,28538.184,0.345223031026253,0.345223031026253,0.36484303102625304,0.008040386130458366,0.008040386130458366,0.007429520892260351,21.9392534805679,22.5242346663346,22.5242346663346,-1.3027237656815607,-2.034463806797721,-100.3946740812318
466,28540.56,0.345223031026253,0.345223031026253,0.36484303102625304,0.008040386130458366,0.008040386130458366,0.007429520892260351,21.9392534805679,22.5242346663346,22.5242346663346,-1.1522217011478937,-1.7925851883814385,-100.45855216701767
467,28585.988,0.345223031026253,0.345223031026253,0.36484303102625304,0.008040386130458366,0.008040386130458366,0.007429520892260351,21.9392534805679,22.5242346663346,22.5242346663346,-1.008593563633443,-1.5612752449775171,-100.52059232602636
468,28619.017,0.345223031026253,0.345223031026253,0.36484303102625304,0.008040386130458366,0.008040386130458366,0.007429520892260351,21.9392534805679,22.5242346663346,22.5242346663346,-1.0336163518922783,-1.441499510066721,-100.52988346890267
469,28685.272,0.345223031026253,0.345223031026253,0.36484303102625304,0.008040386130458366,0.008040386130458366,0.007429520892260351,21.9392534805679,22.5242346663346,22.5242346663346,-1.057629065487808,-1.3269650983679424,-100.54859984448271
470,28697.799,0.345223031026253,0.345223031026253,0.36484303102625304,0.008040386130458366,0.008040386130458366,0.007429520892260351,21.9392534805679,22.5242346663346,22.5242346663346,-1.2007380293907952,-1.18974101731069,-100.38856860248708
471,28778.409,0.345223031026253,0.345223031026253,0.36484303102625304,0.008040386130458366,0.008040386130458366,0.007429520892260351,21.9392534805679,22.5242346663346,22.5242346663346,-1.2747998575348793,-1.1992541000464911,-99.82500387944346
472,28785.203,0.345223031026253,0.345223031026253,0.36484303102625304,0.008040386130458366,0.008040386130458366,0.007429520892260351,21.9392534805679,22.5242346663346,22.5242346663346,-1.3455801984713025,-1.2066722691040581,-99.26375948559986
473,28857.189,0.345223031026253,0.345223031026253,0.36484303102625304,0.008040386130458366,0.008040386130458366,0.007429520892260351,21.9392534805679,22.5242346663346,22.5242346663346,-1.3031820939048226,-1.1607227783495169,-98.5521262680493
474,28884.483,0.345223031026253,0.345223031026253,0.36484303102625304,0.008040386130458366,0.008040386130458366,0.007429520892260351,21.9392534805679,22.5242346663346,22.5242346663346,-1.2621887302960793,-1.1156714014118105,-97.8371697411492
475,28935.973,0.345223031026253,0.345223031026253,0.36484303102625304,0.008040386130458366,0.008040386130458366,0.007429520892260351,21.9392534805679,22.5242346663346,22.5242346663346,-1.1597738005209561,-1.0355510125476246,-97.04567772685027
476,28981.718,0.345223031026253,0.345223031026253,0.36484303102625304,0.008040386130458366,0.008040386130458366,0.007429520892260351,21.9392534805679,22.5242346663346,22.5242346663346,-1.0589608914846638,-0.9596615254719767,-96.24702257607231
477,29016.798,0.345223031026253,0.345223031026253,0.36484303102625304,0.008040386130458366,0.008040386130458366,0.007429520892260351,21.9392534805679,22.5242346663346,22.5242346663346,-0.8436822924102718,-1.033124034161193,-94.68518268272756
478,29081.005,0.345223031026253,0.345223031026253,0.36484303102625304,0.008040386130458366,0.008040386130458366,0.007429520892260351,21.9392534805679,22.5242346663346,22.5242346663346,-0.6429856853211813,-1.1052883641059772,-93.12273355741978
479,29095.582,0.345223031026253,0.345223031026253,0.36484303102625304,0.008040386130458366,0.008040386130458366,0.007429520892260351,21.9392534805679,22.5242346663346,22.5242346663346,-0.6585505677888978,-0.9020847527171739,-91.75502957738641
480,29174.134,0.345223031026253,0.345223031026253,0.36484303102625304,0.008040386130458366,0.008040386130458366,0.007429520892260351,21.9392534805679,22.5242346663346,22.5242346663346,-0.47290225331140723,-1.1521235046847114,-90.56206116700936
481,29180.927,0.345223031026253,0.345223031026253,0.36484303102625304,0.008040386130458366,0.008040386130458366,0.007429520892260351,21.9392534805679,22.5242346663346,22.5242346663346,-0.2989712776076706,-1.3926970039288125,-89.36866052268148
482,29254.967,0.345223031026253,0.345223031026253,0.36484303102625304,0.008040386130458366,0.008040386130458366,0.007429520892260351,21.9392534805679,22.5242346663346,22.5242346663346,-0.24590002351750911,-1.5482706016078094,-88.26032578461333
483,29278.162,0.345223031026253,0.345223031026253,0.36484303102625304,0.008040386130458366,0.008040386130458366,0.007429520892260351,21.9392534805679,22.5242346663346,22.5242346663346,-0.1996873344382828,-1.695762001789256,-87.14917272223846
484,29333.741,0.345223031026253,0.345223031026253,0.36484303102625304,0.008040386130458366,0.008040386130458366,0.007429520892260351,21.9392534805679,22.5242346663346,22.5242346663346,-0.45561561472221407,-1.6723209805996704,-85.88502825606925
485,29377.445,0.345223031026253,0.345223031026253,0.36484303102625304,0.008040386130458366,0.008040386130458366,0.007429520892260351,21.9392534805679,22.5242346663346,22.5242346663346,-0.7025020135780593,-1.6412518919774768,-84.62549410568981
486,29414.572,0.345223031026253,0.345223031026253,0.36484303102625304,0.008040386130458366,0.008040386130458366,0.007429520892260351,21.9392534805679,22.5242346663346,22.5242346663346,-0.8024763238822522,-1.6442428223459977,-83.16166834319031
487,29476.727,0.345223031026253,0.345223031026253,0.36484303102625304,0.008040386130458366,0.008040386130458366,0.007429520892260351,21.9392534805679,22.5242346663346,22.5242346663346,-0.8954977758697517,-1.6416291814428359,-81.69570596690664
488,29493.357,0.345223031026253,0.345223031026253,0.36484303102625304,0.008040386130458366,0.008040386130458366,0.007429520892260351,21.9392534805679,22.5242346663346,22.5242346663346,-1.130760020215869,-1.2958478806836777,-80.19411033208661
489,29571.916,0.345223031026253,0.345223031026253,0.36484303102625304,0.008040386130458366,0.008040386130458366,0.007429520892260351,21.9392534805679,22.5242346663346,22.5242346663346,-1.8185815220781671,-1.0803422353413594,-78.93173093005913
490,29576.661,0.345223031026253,0.345223031026253,0.36484303102625304,0.008040386130458366,0.008040386130458366,0.007429520892260351,21.9392534805679,22.5242346663346,22.5242346663346,-2.469090026236898,-0.8572208296195797,-77.68963040793092
491,29652.752,0.345223031026253,0.345223031026253,0.36484303102625304,0.008040386130458366,0.008040386130458366,0.007429520892260351,21.9392534805679,22.5242346663346,22.5242346663346,-2.2900979642641173,-0.9105859041392397,-75.783283883908
492,29673.898,0.345223031026253,0.345223031026253,0.36484303102625304,0.008040386130458366,0.008040386130458366,0.007429520892260351,21.9392534805679,22.5242346663346,22.5242346663346,-2.118737481141535,-0.9619928660368819,-73.84319535774466
493,29731.525,0.345223031026253,0.345223031026253,0.36484303102625304,0.008040386130458366,0.008040386130458366,0.007429520892260351,21.9392534805679,22.5242346663346,22.5242346663346,-1.687366653590569,-0.7779783354069395,-71.5220383856321
494,29773.178,0.345223031026253,0.345223031026253,0.36484303102625304,0.008040386130458366,0.008040386130458366,0.007429520892260351,21.9392534805679,22.5242346663346,22.5242346663346,-1.2668722933625314,-0.6127222640585832,-69.17898514752147
495,29810.311,0.345223031026253,0.345223031026253,0.36484303102625304,0.008040386130458366,0.008040386130458366,0.007429520892260351,21.9392534805679,22.5242346663346,22.5242346663346,-0.7852693041122575,-0.22671957421846609,-66.7079674933219
