,time,accX,accY,accZ,gyroX,gyroY,gyroZ,magX,magY,magZ,roll,pitch,yaw
0,536324.484,0.24712303102625302,0.24712303102625302,0.276553031026253,0.0009368960748414447,0.0009368960748414447,0.0027694917894354903,1.30338186305695,1.12518279567348,1.12518279567348,0.005921139533124686,0.004383527124430638,-0.014034954873781398
1,536347.679,0.24712303102625302,0.24712303102625302,0.276553031026253,0.0009368960748414447,0.0009368960748414447,0.0027694917894354903,1.30338186305695,1.12518279567348,1.12518279567348,0.015207558627879677,0.009022947417357138,-0.028147531263901345
2,536403.261,0.24712303102625302,0.24712303102625302,0.276553031026253,0.0009368960748414447,0.0009368960748414447,0.0027694917894354903,1.30338186305695,1.12518279567348,1.12518279567348,0.03270684405857766,0.013005343343961424,-0.047382939922546406
3,536446.967,0.24712303102625302,0.24712303102625302,0.276553031026253,0.0009368960748414447,0.0009368960748414447,0.0027694917894354903,1.30338186305695,1.12518279567348,1.12518279567348,0.053612558514384824,0.017261931507157196,-0.06670384862263566
4,536484.097,0.24712303102625302,0.24712303102625302,0.276553031026253,0.0009368960748414447,0.0009368960748414447,0.0027694917894354903,1.30338186305695,1.12518279567348,1.12518279567348,0.08264590720416568,0.052451807882396215,-0.08810275778297269
5,536544.207,0.24712303102625302,0.24712303102625302,0.276553031026253,0.0009368960748414447,0.0009368960748414447,0.0027694917894354903,1.30338186305695,1.12518279567348,1.12518279567348,0.11492860854841679,0.08787529086772301,-0.10954167258126128
6,536562.886,0.24712303102625302,0.24712303102625302,0.276553031026253,0.0009368960748414447,0.0009368960748414447,0.0027694917894354903,1.30338186305695,1.12518279567348,1.12518279567348,0.13037261842484552,0.10413926609802719,-0.11205799253440109
7,536641.444,0.24712303102625302,0.24712303102625302,0.276553031026253,0.0009368960748414447,0.0009368960748414447,0.0027694917894354903,1.30338186305695,1.12518279567348,1.12518279567348,0.13449787949282788,0.0647844380218057,-0.06647576751968423
8,536643.819,0.24712303102625302,0.24712303102625302,0.276553031026253,0.0009368960748414447,0.0009368960748414447,0.0027694917894354903,1.30338186305695,1.12518279567348,1.12518279567348,0.14252243123734099,0.025566769731768656,-0.020870834277682826
9,536722.267,0.24712303102625302,0.24712303102625302,0.276553031026253,0.0009368960748414447,0.0009368960748414447,0.0027694917894354903,1.30338186305695,1.12518279567348,1.12518279567348,0.15516410836940966,0.010483650721115435,0.022136112800226666
10,536743.414,0.24712303102625302,0.24712303102625302,0.276553031026253,0.0009368960748414447,0.0009368960748414447,0.0027694917894354903,1.30338186305695,1.12518279567348,1.12518279567348,0.17082475329367117,-0.004371082675483199,0.06506408621551037
11,536801.045,0.24712303102625302,0.24712303102625302,0.276553031026253,0.0009368960748414447,0.0009368960748414447,0.0027694917894354903,1.30338186305695,1.12518279567348,1.12518279567348,0.2090620934352112,-0.016769527425924108,0.05772245396258637
12,536842.699,0.24712303102625302,0.24712303102625302,0.276553031026253,0.0009368960748414447,0.0009368960748414447,0.0027694917894354903,1.30338186305695,1.12518279567348,1.12518279567348,0.2502483446779316,-0.028933047984462723,0.050300329099010735
13,536881.876,0.24712303102625302,0.24712303102625302,0.276553031026253,0.0009368960748414447,0.0009368960748414447,0.0027694917894354903,1.30338186305695,1.12518279567348,1.12518279567348,0.3090873760674734,-0.0021546042582616326,0.009463780451516152
14,536939.93,0.24712303102625302,0.24712303102625302,0.276553031026253,0.0009368960748414447,0.0009368960748414447,0.0027694917894354903,1.30338186305695,1.12518279567348,1.12518279567348,0.370725785793623,0.02485424620793904,-0.031393173898753624
15,536960.659,0.24712303102625302,0.24712303102625302,0.276553031026253,0.0009368960748414447,0.0009368960748414447,0.0027694917894354903,1.30338186305695,1.12518279567348,1.12518279567348,0.4404557352468243,0.06700859988264389,-0.048748946239389745
16,537039.218,0.24712303102625302,0.24712303102625302,0.276553031026253,0.0009368960748414447,0.0009368960748414447,0.0027694917894354903,1.30338186305695,1.12518279567348,1.12518279567348,0.5128244074599575,0.1093381923829125,-0.06608232329927378
17,537041.493,0.24712303102625302,0.24712303102625302,0.276553031026253,0.0009368960748414447,0.0009368960748414447,0.0027694917894354903,1.30338186305695,1.12518279567348,1.12518279567348,0.5771892140291516,0.14484203661435147,-0.056831516716749214
18,537120.039,0.24712303102625302,0.24712303102625302,0.276553031026253,0.0009368960748414447,0.0009368960748414447,0.0027694917894354903,1.30338186305695,1.12518279567348,1.12518279567348,0.650032177639576,0.14001863559269903,-0.04841795859005924
19,537139.142,0.24712303102625302,0.24712303102625302,0.276553031026253,0.0009368960748414447,0.0009368960748414447,0.0027694917894354903,1.30338186305695,1.12518279567348,1.12518279567348,0.7252492213036386,0.1353721463101379,-0.04006705701008037
20,537198.82,0.24712303102625302,0.24712303102625302,0.276553031026253,0.0009368960748414447,0.0009368960748414447,0.0027694917894354903,1.30338186305695,1.12518279567348,1.12518279567348,0.8031116371994247,0.12335764031405597,-0.0416398152678216
21,537238.425,0.24712303102625302,0.24712303102625302,0.276553031026253,0.0009368960748414447,0.0009368960748414447,0.0027694917894354903,1.30338186305695,1.12518279567348,1.12518279567348,0.8832314814254291,0.1115351685017431,-0.043289519119386596
22,537279.656,0.24712303102625302,0.24712303102625302,0.276553031026253,0.0009368960748414447,0.0009368960748414447,0.0027694917894354903,1.30338186305695,1.12518279567348,1.12518279567348,0.9944816213539589,0.15779344494659184,-0.03414384524469712
23,537335.663,0.24712303102625302,0.24712303102625302,0.276553031026253,0.0009368960748414447,0.0009368960748414447,0.0027694917894354903,1.30338186305695,1.12518279567348,1.12518279567348,1.1077226615175433,0.2041003865769131,-0.02489681856673672
24,537358.439,0.24712303102625302,0.24712303102625302,0.276553031026253,0.0009368960748414447,0.0009368960748414447,0.0027694917894354903,1.30338186305695,1.12518279567348,1.12518279567348,1.310081427172507,0.2325492113585182,-0.033000008053946164
25,537434.941,0.24712303102625302,0.24712303102625302,0.276553031026253,0.0009368960748414447,0.0009368960748414447,0.0027694917894354903,1.30338186305695,1.12518279567348,1.12518279567348,1.5141052098020398,0.2611077433703586,-0.04100950930720324
26,537437.218,0.24712303102625302,0.24712303102625302,0.276553031026253,0.0009368960748414447,0.0009368960748414447,0.0027694917894354903,1.30338186305695,1.12518279567348,1.12518279567348,1.912935046266231,0.29021767613836835,-0.055520310118179254
27,537517.819,0.24712303102625302,0.24712303102625302,0.276553031026253,0.0009368960748414447,0.0009368960748414447,0.0027694917894354903,1.30338186305695,1.12518279567348,1.12518279567348,2.4333636841000423,0.41483634158678967,-0.08572553417443018
28,537534.863,0.24712303102625302,0.24712303102625302,0.276553031026253,0.0009368960748414447,0.0009368960748414447,0.0027694917894354903,1.30338186305695,1.12518279567348,1.12518279567348,2.9544440755881585,0.5395843710973757,-0.11470880169304128
29,537596.597,0.24712303102625302,0.24712303102625302,0.276553031026253,0.0009368960748414447,0.0009368960748414447,0.0027694917894354903,1.30338186305695,1.12518279567348,1.12518279567348,3.470870419676166,0.6575138105911326,-0.15683329892398076
30,537634.142,0.24712303102625302,0.24712303102625302,0.276553031026253,0.0009368960748414447,0.0009368960748414447,0.0027694917894354903,1.30338186305695,1.12518279567348,1.12518279567348,3.987690735445025,0.775638930686209,-0.19779677919032504
31,537677.428,0.24712303102625302,0.24712303102625302,0.276553031026253,0.0009368960748414447,0.0009368960748414447,0.0027694917894354903,1.30338186305695,1.12518279567348,1.12518279567348,4.644426820410949,0.8858784788311537,-0.2542526646744813
32,537731.371,0.24712303102625302,0.24712303102625302,0.276553031026253,0.0009368960748414447,0.0009368960748414447,0.0027694917894354903,1.30338186305695,1.12518279567348,1.12518279567348,5.300954175165133,0.996552304779446,-0.3093550342982685
33,537756.209,0.24712303102625302,0.24712303102625302,0.276553031026253,0.0009368960748414447,0.0009368960748414447,0.0027694917894354903,1.30338186305695,1.12518279567348,1.12518279567348,6.152458926850297,1.1636309287776716,-0.37285281837807666
34,537830.66,0.24712303102625302,0.24712303102625302,0.276553031026253,0.0009368960748414447,0.0009368960748414447,0.0027694917894354903,1.30338186305695,1.12518279567348,1.12518279567348,7.0029748406700865,1.331251593050324,-0.433727404177828
35,537837.036,0.24712303102625302,0.24712303102625302,0.276553031026253,0.0009368960748414447,0.0009368960748414447,0.0027694917894354903,1.30338186305695,1.12518279567348,1.12518279567348,8.11411988961934,1.5671716070580477,-0.4832858876473866
36,537915.588,0.24712303102625302,0.24712303102625302,0.276553031026253,0.0009368960748414447,0.0009368960748414447,0.0027694917894354903,1.30338186305695,1.12518279567348,1.12518279567348,9.10558191402215,1.6547778284463035,-0.5401048090978053
37,537930.581,0.24712303102625302,0.24712303102625302,0.276553031026253,0.0009368960748414447,0.0009368960748414447,0.0027694917894354903,1.30338186305695,1.12518279567348,1.12518279567348,10.095306218340607,1.7430944907088775,-0.5953488999838028
38,537994.368,0.24712303102625302,0.24712303102625302,0.276553031026253,0.0009368960748414447,0.0009368960748414447,0.0027694917894354903,1.30338186305695,1.12518279567348,1.12518279567348,11.153185745943496,1.7777235323362084,-0.7193592397552846
39,538029.866,0.24712303102625302,0.24712303102625302,0.276553031026253,0.0009368960748414447,0.0009368960748414447,0.0027694917894354903,1.30338186305695,1.12518279567348,1.12518279567348,12.20877496899107,1.8144592194218123,-0.8427157392193871
40,538075.208,0.24712303102625302,0.24712303102625302,0.276553031026253,0.0009368960748414447,0.0009368960748414447,0.0027694917894354903,1.30338186305695,1.12518279567348,1.12518279567348,13.315211863361489,1.9106248823530547,-0.9195132670448907
41,538129.156,0.24712303102625302,0.24712303102625302,0.276553031026253,0.0009368960748414447,0.0009368960748414447,0.0027694917894354903,1.30338186305695,1.12518279567348,1.12518279567348,14.41879441449182,2.0078996342847555,-0.9944116593105325
42,538153.993,0.24712303102625302,0.24712303102625302,0.276553031026253,0.0009368960748414447,0.0009368960748414447,0.0027694917894354903,1.30338186305695,1.12518279567348,1.12518279567348,15.757332040789338,2.254723635454369,-1.0266797561646344
43,538226.387,0.24712303102625302,0.24712303102625302,0.276553031026253,0.0009368960748414447,0.0009368960748414447,0.0027694917894354903,1.30338186305695,1.12518279567348,1.12518279567348,17.092206728531465,2.5014129617412526,-1.053081485955773
44,538234.814,0.24712303102625302,0.24712303102625302,0.276553031026253,0.0009368960748414447,0.0009368960748414447,0.0027694917894354903,1.30338186305695,1.12518279567348,1.12518279567348,18.995926027966526,2.958221884464021,-1.0965721221849787
45,538313.367,0.24712303102625302,0.24712303102625302,0.276553031026253,0.0009368960748414447,0.0009368960748414447,0.0027694917894354903,1.30338186305695,1.12518279567348,1.12518279567348,21.103348693326126,3.4478372011788645,-1.1990797568050724
46,538326.313,0.24712303102625302,0.24712303102625302,0.276553031026253,0.0009368960748414447,0.0009368960748414447,0.0027694917894354903,1.30338186305695,1.12518279567348,1.12518279567348,23.204737951800507,3.9392053410453896,-1.2834713919307208
47,538394.207,0.24712303102625302,0.24712303102625302,0.276553031026253,0.0009368960748414447,0.0009368960748414447,0.0027694917894354903,1.30338186305695,1.12518279567348,1.12518279567348,25.204542535499876,4.30903671552153,-1.4467714230670674
48,538425.603,0.24712303102625302,0.24712303102625302,0.276553031026253,0.0009368960748414447,0.0009368960748414447,0.0027694917894354903,1.30338186305695,1.12518279567348,1.12518279567348,27.19830642590998,4.682874520846361,-1.5971706659002096
49,538472.989,0.24712303102625302,0.24712303102625302,0.276553031026253,0.0009368960748414447,0.0009368960748414447,0.0027694917894354903,1.30338186305695,1.12518279567348,1.12518279567348,28.737744547433298,4.8669366743165,-1.6197052606181062
50,538524.884,0.24712303102625302,0.24712303102625302,0.276553031026253,0.0009368960748414447,0.0009368960748414447,0.0027694917894354903,1.30338186305695,1.12518279567348,1.12518279567348,30.27262924349801,5.050766720427435,-1.637433332571461
51,538551.771,0.24712303102625302,0.24712303102625302,0.276553031026253,0.0009368960748414447,0.0009368960748414447,0.0027694917894354903,1.30338186305695,1.12518279567348,1.12518279567348,32.2497539641674,5.3769341506563215,-1.5271176709585648
52,538624.168,0.24712303102625302,0.24712303102625302,0.276553031026253,0.0009368960748414447,0.0009368960748414447,0.0027694917894354903,1.30338186305695,1.12518279567348,1.12518279567348,34.22259331020397,5.698172952786511,-1.4057694746297242
53,538632.595,0.24712303102625302,0.24712303102625302,0.276553031026253,0.0009368960748414447,0.0009368960748414447,0.0027694917894354903,1.30338186305695,1.12518279567348,1.12518279567348,36.463338228620565,5.995834199870394,-1.298898044127576
54,538711.153,0.24712303102625302,0.24712303102625302,0.276553031026253,0.0009368960748414447,0.0009368960748414447,0.0027694917894354903,1.30338186305695,1.12518279567348,1.12518279567348,38.858281012479274,6.334760034012544,-1.161407977706925
55,538722.046,0.24712303102625302,0.24712303102625302,0.276553031026253,0.0009368960748414447,0.0009368960748414447,0.0027694917894354903,1.30338186305695,1.12518279567348,1.12518279567348,41.24938192573875,6.666888069453844,-1.0101260703384916
56,538791.982,0.24712303102625302,0.24712303102625302,0.276553031026253,0.0009368960748414447,0.0009368960748414447,0.0027694917894354903,1.30338186305695,1.12518279567348,1.12518279567348,43.36609095928728,6.957467561296739,-0.8971698879534447
57,538821.326,0.24712303102625302,0.24712303102625302,0.276553031026253,0.0009368960748414447,0.0009368960748414447,0.0027694917894354903,1.30338186305695,1.12518279567348,1.12518279567348,45.4797929902813,7.243103161341554,-0.7737901508606098
58,538870.765,0.24712303102625302,0.24712303102625302,0.276553031026253,0.0009368960748414447,0.0009368960748414447,0.0027694917894354903,1.30338186305695,1.12518279567348,1.12518279567348,47.02319820762107,7.403227610798115,-0.7682489312272398
59,538920.614,0.24712303102625302,0.24712303102625302,0.276553031026253,0.0009368960748414447,0.0009368960748414447,0.0027694917894354903,1.30338186305695,1.12518279567348,1.12518279567348,48.563982378482464,7.562756109344594,-0.7586803304602927
60,538949.543,0.24712303102625302,0.24712303102625302,0.276553031026253,0.0009368960748414447,0.0009368960748414447,0.0027694917894354903,1.30338186305695,1.12518279567348,1.12518279567348,50.02028088659785,7.839900517500407,-0.7028650473183455
61,539019.902,0.24712303102625302,0.24712303102625302,0.276553031026253,0.0009368960748414447,0.0009368960748414447,0.0027694917894354903,1.30338186305695,1.12518279567348,1.12518279567348,51.4751843325825,8.115111809688178,-0.6400767171318268
62,539030.379,0.24712303102625302,0.24712303102625302,0.276553031026253,0.0009368960748414447,0.0009368960748414447,0.0027694917894354903,1.30338186305695,1.12518279567348,1.12518279567348,53.23557298454576,8.355596441444254,-0.5877497660060927
63,539108.934,0.24712303102625302,0.24712303102625302,0.276553031026253,0.0009368960748414447,0.0009368960748414447,0.0027694917894354903,1.30338186305695,1.12518279567348,1.12518279567348,54.96239332914724,8.517900350234113,-0.44773672437452494
64,539117.778,0.24712303102625302,0.24712303102625302,0.276553031026253,0.0009368960748414447,0.0009368960748414447,0.0027694917894354903,1.30338186305695,1.12518279567348,1.12518279567348,56.688330907575356,8.676026763866854,-0.30303040587358515
65,539189.768,0.24712303102625302,0.24712303102625302,0.276553031026253,0.0009368960748414447,0.0009368960748414447,0.0027694917894354903,1.30338186305695,1.12518279567348,1.12518279567348,58.66686663594357,8.757559777836235,0.07197689518458407
66,539217.063,0.24712303102625302,0.24712303102625302,0.276553031026253,0.0009368960748414447,0.0009368960748414447,0.0027694917894354903,1.30338186305695,1.12518279567348,1.12518279567348,60.644938578329864,8.827094032179463,0.44972937505610483
67,539268.552,0.24712303102625302,0.24712303102625302,0.276553031026253,0.0009368960748414447,0.0009368960748414447,0.0027694917894354903,1.30338186305695,1.12518279567348,1.12518279567348,62.4333717691694,8.714836920361227,0.8302635648997169
68,539316.351,0.24712303102625302,0.24712303102625302,0.276553031026253,0.0009368960748414447,0.0009368960748414447,0.0027694917894354903,1.30338186305695,1.12518279567348,1.12518279567348,64.2200797933429,8.592058358694784,1.2070358809038646
69,539349.379,0.24712303102625302,0.24712303102625302,0.276553031026253,0.0009368960748414447,0.0009368960748414447,0.0027694917894354903,1.30338186305695,1.12518279567348,1.12518279567348,66.10248327789648,8.382093018833167,1.4275029521619527
70,539415.634,0.24712303102625302,0.24712303102625302,0.276553031026253,0.0009368960748414447,0.0009368960748414447,0.0027694917894354903,1.30338186305695,1.12518279567348,1.12518279567348,67.98374294521066,8.165948142495713,1.6404597614938925
71,539428.162,0.24712303102625302,0.24712303102625302,0.276553031026253,0.0009368960748414447,0.0009368960748414447,0.0027694917894354903,1.30338186305695,1.12518279567348,1.12518279567348,69.38654324583588,7.866941859884223,1.5921899235088055
72,539506.717,0.24712303102625302,0.24712303102625302,0.276553031026253,0.0009368960748414447,0.0009368960748414447,0.0027694917894354903,1.30338186305695,1.12518279567348,1.12518279567348,70.76885831474107,7.717688748845013,1.3963553343157784
73,539509.092,0.24712303102625302,0.24712303102625302,0.276553031026253,0.0009368960748414447,0.0009368960748414447,0.0027694917894354903,1.30338186305695,1.12518279567348,1.12518279567348,72.16322738151537,7.575585168053783,1.1994040965743538
74,539513.521,0.24712303102625302,0.24712303102625302,0.276553031026253,0.0009368960748414447,0.0009368960748414447,0.0027694917894354903,1.30338186305695,1.12518279567348,1.12518279567348,73.55908873069663,7.437994856143328,0.9979333732320181
75,539587.564,0.24712303102625302,0.24712303102625302,0.276553031026253,0.0009368960748414447,0.0009368960748414447,0.0027694917894354903,1.30338186305695,1.12518279567348,1.12518279567348,74.76360945669587,7.387907146767758,0.7666058625037007
76,539612.809,0.24712303102625302,0.24712303102625302,0.276553031026253,0.0009368960748414447,0.0009368960748414447,0.0027694917894354903,1.30338186305695,1.12518279567348,1.12518279567348,75.96999232011952,7.342215115359447,0.5332357930592951
77,539666.337,0.24712303102625302,0.24712303102625302,0.276553031026253,0.0009368960748414447,0.0009368960748414447,0.0027694917894354903,1.30338186305695,1.12518279567348,1.12518279567348,76.78888779619295,7.4474113712471235,0.28333409906372764
78,539712.081,0.24712303102625302,0.24712303102625302,0.276553031026253,0.0009368960748414447,0.0009368960748414447,0.0027694917894354903,1.30338186305695,1.12518279567348,1.12518279567348,77.60905149702262,7.555524894900703,0.03420377158174399
79,539747.163,0.24712303102625302,0.24712303102625302,0.276553031026253,0.0009368960748414447,0.0009368960748414447,0.0027694917894354903,1.30338186305695,1.12518279567348,1.12518279567348,78.64595488387572,7.6749593788252515,-0.19430585516189053
80,539811.367,0.24712303102625302,0.24712303102625302,0.276553031026253,0.0009368960748414447,0.0009368960748414447,0.0027694917894354903,1.30338186305695,1.12518279567348,1.12518279567348,79.68461642168653,7.797913953472869,-0.4214473406257602
81,539825.944,0.24712303102625302,0.24712303102625302,0.276553031026253,0.0009368960748414447,0.0009368960748414447,0.0027694917894354903,1.30338186305695,1.12518279567348,1.12518279567348,80.95887236044027,7.752385756773557,-0.607800930030055
82,539906.552,0.24712303102625302,0.24712303102625302,0.276553031026253,0.0009368960748414447,0.0009368960748414447,0.0027694917894354903,1.30338186305695,1.12518279567348,1.12518279567348,82.00442026488138,7.513162334490396,-0.6931118255786982
83,539909.246,0.24712303102625302,0.24712303102625302,0.276553031026253,0.0009368960748414447,0.0009368960748414447,0.0027694917894354903,1.30338186305695,1.12518279567348,1.12518279567348,83.05212471636794,7.275579185528031,-0.7836346497259608
84,539985.335,0.24712303102625302,0.24712303102625302,0.276553031026253,0.0009368960748414447,0.0009368960748414447,0.0027694917894354903,1.30338186305695,1.12518279567348,1.12518279567348,84.25564275220046,6.753857914418121,-0.8206905077655771
85,540008.528,0.24712303102625302,0.24712303102625302,0.276553031026253,0.0009368960748414447,0.0009368960748414447,0.0027694917894354903,1.30338186305695,1.12518279567348,1.12518279567348,85.4609376447793,6.233327595277263,-0.8699364804334742
86,540064.111,0.24712303102625302,0.24712303102625302,0.276553031026253,0.0009368960748414447,0.0009368960748414447,0.0027694917894354903,1.30338186305695,1.12518279567348,1.12518279567348,86.49454023773687,5.6344225999112965,-0.9421167311889138
87,540107.817,0.24712303102625302,0.24712303102625302,0.276553031026253,0.0009368960748414447,0.0009368960748414447,0.0027694917894354903,1.30338186305695,1.12518279567348,1.12518279567348,87.53088693438775,5.037204744138423,-1.026399063161804
88,540144.947,0.24712303102625302,0.24712303102625302,0.276553031026253,0.0009368960748414447,0.0009368960748414447,0.0027694917894354903,1.30338186305695,1.12518279567348,1.12518279567348,88.01662079075315,4.827780825729563,-1.1863951844340845
89,540207.108,0.24712303102625302,0.24712303102625302,0.276553031026253,0.0009368960748414447,0.0009368960748414447,0.0027694917894354903,1.30338186305695,1.12518279567348,1.12518279567348,88.50429393219324,4.6195186960744925,-1.3489186373712931
90,540223.735,0.24712303102625302,0.24712303102625302,0.276553031026253,0.0009368960748414447,0.0009368960748414447,0.0027694917894354903,1.30338186305695,1.12518279567348,1.12518279567348,88.61262715464626,4.577495172836555,-1.5858004308041502
91,540304.339,0.24712303102625302,0.24712303102625302,0.276553031026253,0.0009368960748414447,0.0009368960748414447,0.0027694917894354903,1.30338186305695,1.12518279567348,1.12518279567348,88.74015407767207,4.492175277218035,-1.7230473368207662
92,540383.119,0.24712303102625302,0.24712303102625302,0.276553031026253,0.0009368960748414447,0.0009368960748414447,0.0027694917894354903,1.30338186305695,1.12518279567348,1.12518279567348,88.85177593396452,4.310548517319061,-1.9917967702804955
93,540404.265,0.24712303102625302,0.24712303102625302,0.276553031026253,0.0009368960748414447,0.0009368960748414447,0.0027694917894354903,1.30338186305695,1.12518279567348,1.12518279567348,88.96469186245527,4.129212285562116,-2.2619247521234223
94,540461.9,0.24712303102625302,0.24712303102625302,0.276553031026253,0.0009368960748414447,0.0009368960748414447,0.0027694917894354903,1.30338186305695,1.12518279567348,1.12518279567348,88.97780936913378,4.057627996624499,-2.4005960577874044
95,540503.555,0.24712303102625302,0.24712303102625302,0.276553031026253,0.0009368960748414447,0.0009368960748414447,0.0027694917894354903,1.30338186305695,1.12518279567348,1.12518279567348,88.99134300025936,3.985818832144859,-2.539550210909502
96,540542.733,0.24712303102625302,0.24712303102625302,0.276553031026253,0.0009368960748414447,0.0009368960748414447,0.0027694917894354903,1.30338186305695,1.12518279567348,1.12518279567348,88.9460120041571,3.9615641060208713,-2.7491978711205958
97,540602.837,0.24712303102625302,0.24712303102625302,0.276553031026253,0.0009368960748414447,0.0009368960748414447,0.0027694917894354903,1.30338186305695,1.12518279567348,1.12518279567348,88.90069894309235,3.9368100658564034,-2.9593640171464677
98,540621.516,0.24712303102625302,0.24712303102625302,0.276553031026253,0.0009368960748414447,0.0009368960748414447,0.0027694917894354903,1.30338186305695,1.12518279567348,1.12518279567348,88.92219367517406,3.874201581489323,-3.0891752687653673
99,540702.123,0.24712303102625302,0.24712303102625302,0.276553031026253,0.0009368960748414447,0.0009368960748414447,0.0027694917894354903,1.30338186305695,1.12518279567348,1.12518279567348,88.83877825681061,3.8668481681464466,-3.1326960855826127
100,540780.888,0.24712303102625302,0.24712303102625302,0.276553031026253,0.0009368960748414447,0.0009368960748414447,0.0027694917894354903,1.30338186305695,1.12518279567348,1.12518279567348,88.74744100639099,3.806265388256601,-3.1663379765092365
101,540799.992,0.24712303102625302,0.24712303102625302,0.276553031026253,0.0009368960748414447,0.0009368960748414447,0.0027694917894354903,1.30338186305695,1.12518279567348,1.12518279567348,88.65594573446525,3.7454406043496657,-3.199717536816771
102,540861.72,0.24712303102625302,0.24712303102625302,0.276553031026253,0.0009368960748414447,0.0009368960748414447,0.0027694917894354903,1.30338186305695,1.12518279567348,1.12518279567348,88.51805984882311,3.649284592533492,-3.2352477253661
103,540899.276,0.24712303102625302,0.24712303102625302,0.276553031026253,0.0009368960748414447,0.0009368960748414447,0.0027694917894354903,1.30338186305695,1.12518279567348,1.12518279567348,88.3801023044633,3.5528982790170516,-3.270387978860015
104,540940.507,0.24712303102625302,0.24712303102625302,0.276553031026253,0.0009368960748414447,0.0009368960748414447,0.0027694917894354903,1.30338186305695,1.12518279567348,1.12518279567348,88.2070552721965,3.5151830948639144,-3.281932852234446
105,540998.565,0.24712303102625302,0.24712303102625302,0.276553031026253,0.0009368960748414447,0.0009368960748414447,0.0027694917894354903,1.30338186305695,1.12518279567348,1.12518279567348,88.03363494880115,3.4772262361943147,-3.293078528046182
106,541019.293,0.24712303102625302,0.24712303102625302,0.276553031026253,0.0009368960748414447,0.0009368960748414447,0.0027694917894354903,1.30338186305695,1.12518279567348,1.12518279567348,87.91128653638609,3.435532273748194,-3.341087066802829
107,541097.846,0.24712303102625302,0.24712303102625302,0.276553031026253,0.0009368960748414447,0.0009368960748414447,0.0027694917894354903,1.30338186305695,1.12518279567348,1.12518279567348,87.7887165899125,3.3935284376552985,-3.3889257479352044
108,541100.121,0.24712303102625302,0.24712303102625302,0.276553031026253,0.0009368960748414447,0.0009368960748414447,0.0027694917894354903,1.30338186305695,1.12518279567348,1.12518279567348,87.6765974654225,3.3257678869186456,-3.4214608612768393
109,541178.668,0.24712303102625302,0.24712303102625302,0.276553031026253,0.0009368960748414447,0.0009368960748414447,0.0027694917894354903,1.30338186305695,1.12518279567348,1.12518279567348,87.51013332569411,3.2567088942678395,-3.5177251061936556
110,541195.72,0.24712303102625302,0.24712303102625302,0.276553031026253,0.0009368960748414447,0.0009368960748414447,0.0027694917894354903,1.30338186305695,1.12518279567348,1.12518279567348,87.34344020555604,3.1871910333564997,-3.6139694871100265
111,541259.506,0.24712303102625302,0.24712303102625302,0.276553031026253,0.0009368960748414447,0.0009368960748414447,0.0027694917894354903,1.30338186305695,1.12518279567348,1.12518279567348,87.16563781798942,3.123167296085696,-3.69186077885953
112,541295.01,0.24712303102625302,0.24712303102625302,0.276553031026253,0.0009368960748414447,0.0009368960748414447,0.0027694917894354903,1.30338186305695,1.12518279567348,1.12518279567348,86.98755743618781,3.058721522524683,-3.769662168714236
113,541338.288,0.24712303102625302,0.24712303102625302,0.276553031026253,0.0009368960748414447,0.0009368960748414447,0.0027694917894354903,1.30338186305695,1.12518279567348,1.12518279567348,86.84798609314505,3.0149959267563005,-3.8042510693665426
114,541394.29,0.24712303102625302,0.24712303102625302,0.276553031026253,0.0009368960748414447,0.0009368960748414447,0.0027694917894354903,1.30338186305695,1.12518279567348,1.12518279567348,86.70822513601975,2.970985349289135,-3.8386247419634456
115,541417.069,0.24712303102625302,0.24712303102625302,0.276553031026253,0.0009368960748414447,0.0009368960748414447,0.0027694917894354903,1.30338186305695,1.12518279567348,1.12518279567348,86.52643090629178,2.993167024136274,-3.8799275557541733
116,541493.567,0.24712303102625302,0.24712303102625302,0.276553031026253,0.0009368960748414447,0.0009368960748414447,0.0027694917894354903,1.30338186305695,1.12518279567348,1.12518279567348,86.34423116199349,3.0149045974069173,-3.921116894253222
117,541497.894,0.24712303102625302,0.24712303102625302,0.276553031026253,0.0009368960748414447,0.0009368960748414447,0.0027694917894354903,1.30338186305695,1.12518279567348,1.12518279567348,86.14095380572168,3.0053344622390177,-4.000668470221584
118,541576.439,0.24712303102625302,0.24712303102625302,0.276553031026253,0.0009368960748414447,0.0009368960748414447,0.0027694917894354903,1.30338186305695,1.12518279567348,1.12518279567348,85.92337100615994,2.9748747161564952,-4.053800648342199
119,541591.433,0.24712303102625302,0.24712303102625302,0.276553031026253,0.0009368960748414447,0.0009368960748414447,0.0027694917894354903,1.30338186305695,1.12518279567348,1.12518279567348,85.70529012856672,2.943990924177442,-4.106792502623424
120,541657.268,0.24712303102625302,0.24712303102625302,0.276553031026253,0.0009368960748414447,0.0009368960748414447,0.0027694917894354903,1.30338186305695,1.12518279567348,1.12518279567348,85.42668035350647,2.862753860290074,-4.056640453268171
121,541690.715,0.24712303102625302,0.24712303102625302,0.276553031026253,0.0009368960748414447,0.0009368960748414447,0.0027694917894354903,1.30338186305695,1.12518279567348,1.12518279567348,85.14739947448055,2.7816203844994907,-4.005647733609984
122,541736.055,0.24712303102625302,0.24712303102625302,0.276553031026253,0.0009368960748414447,0.0009368960748414447,0.0027694917894354903,1.30338186305695,1.12518279567348,1.12518279567348,84.72296646018685,2.7224920632231284,-3.9824698439512924
123,541790.003,0.24712303102625302,0.24712303102625302,0.276553031026253,0.0009368960748414447,0.0009368960748414447,0.0027694917894354903,1.30338186305695,1.12518279567348,1.12518279567348,84.2975290457002,2.6633218260284606,-3.958449792869762
124,541814.837,0.24712303102625302,0.24712303102625302,0.276553031026253,0.0009368960748414447,0.0009368960748414447,0.0027694917894354903,1.30338186305695,1.12518279567348,1.12518279567348,83.49707815399113,2.507028772817823,-3.9590848186007204
125,541889.284,0.24712303102625302,0.24712303102625302,0.276553031026253,0.0009368960748414447,0.0009368960748414447,0.0027694917894354903,1.30338186305695,1.12518279567348,1.12518279567348,82.69476428715993,2.3506241613006114,-3.957291387277427
126,541895.662,0.24712303102625302,0.24712303102625302,0.276553031026253,0.0009368960748414447,0.0009368960748414447,0.0027694917894354903,1.30338186305695,1.12518279567348,1.12518279567348,81.61677784733331,2.0781627196240247,-4.022929026387787
127,541974.217,0.24712303102625302,0.24712303102625302,0.276553031026253,0.0009368960748414447,0.0009368960748414447,0.0027694917894354903,1.30338186305695,1.12518279567348,1.12518279567348,80.38850825770099,1.8390512720297705,-4.209107145974238
128,541987.162,0.24712303102625302,0.24712303102625302,0.276553031026253,0.0009368960748414447,0.0009368960748414447,0.0027694917894354903,1.30338186305695,1.12518279567348,1.12518279567348,79.15866572642855,1.5961383391802513,-4.39075540553218
129,542055.052,0.24712303102625302,0.24712303102625302,0.276553031026253,0.0009368960748414447,0.0009368960748414447,0.0027694917894354903,1.30338186305695,1.12518279567348,1.12518279567348,77.99023384816144,1.4057907877644402,-4.556558690739987
130,542086.449,0.24712303102625302,0.24712303102625302,0.276553031026253,0.0009368960748414447,0.0009368960748414447,0.0027694917894354903,1.30338186305695,1.12518279567348,1.12518279567348,76.820404848758,1.2121228007813651,-4.7188710398875084
131,542133.835,0.24712303102625302,0.24712303102625302,0.276553031026253,0.0009368960748414447,0.0009368960748414447,0.0027694917894354903,1.30338186305695,1.12518279567348,1.12518279567348,75.92155847148317,1.1601364394811369,-4.760353507558585
132,542185.73,0.24712303102625302,0.24712303102625302,0.276553031026253,0.0009368960748414447,0.0009368960748414447,0.0027694917894354903,1.30338186305695,1.12518279567348,1.12518279567348,75.02127380670628,1.1071454113703272,-4.800698185769029
133,542212.619,0.24712303102625302,0.24712303102625302,0.276553031026253,0.0009368960748414447,0.0009368960748414447,0.0027694917894354903,1.30338186305695,1.12518279567348,1.12518279567348,73.7878408516132,1.0324592506881876,-4.840888071364262
134,542214.994,0.24712303102625302,0.24712303102625302,0.276553031026253,0.0009368960748414447,0.0009368960748414447,0.0027694917894354903,1.30338186305695,1.12518279567348,1.12518279567348,72.5412909546729,0.9560577242798249,-4.880345311458759
135,542285.021,0.24712303102625302,0.24712303102625302,0.276553031026253,0.0009368960748414447,0.0009368960748414447,0.0027694917894354903,1.30338186305695,1.12518279567348,1.12518279567348,71.29325341311447,0.8784445901215386,-4.917643930793273
136,542293.447,0.24712303102625302,0.24712303102625302,0.276553031026253,0.0009368960748414447,0.0009368960748414447,0.0027694917894354903,1.30338186305695,1.12518279567348,1.12518279567348,69.7242071936152,0.9215034525867342,-4.81852023300605
137,542372.003,0.24712303102625302,0.24712303102625302,0.276553031026253,0.0009368960748414447,0.0009368960748414447,0.0027694917894354903,1.30338186305695,1.12518279567348,1.12518279567348,68.116349733267,0.8497378353159232,-4.544357159493303
138,542382.897,0.24712303102625302,0.24712303102625302,0.276553031026253,0.0009368960748414447,0.0009368960748414447,0.0027694917894354903,1.30338186305695,1.12518279567348,1.12518279567348,66.50638914146646,0.7854006611310206,-4.26655355778817
139,542452.834,0.24712303102625302,0.24712303102625302,0.276553031026253,0.0009368960748414447,0.0009368960748414447,0.0027694917894354903,1.30338186305695,1.12518279567348,1.12518279567348,64.87750865481861,0.5573683679703282,-4.067297920010939
140,542482.178,0.24712303102625302,0.24712303102625302,0.276553031026253,0.0009368960748414447,0.0009368960748414447,0.0027694917894354903,1.30338186305695,1.12518279567348,1.12518279567348,63.24671375002394,0.3356501984090506,-3.8609987475813026
141,542531.619,0.24712303102625302,0.24712303102625302,0.276553031026253,0.0009368960748414447,0.0009368960748414447,0.0027694917894354903,1.30338186305695,1.12518279567348,1.12518279567348,61.90711334172411,0.1953297008708287,-3.9074940790874764
142,542581.466,0.24712303102625302,0.24712303102625302,0.276553031026253,0.0009368960748414447,0.0009368960748414447,0.0027694917894354903,1.30338186305695,1.12518279567348,1.12518279567348,60.56722506473433,0.05422056662754471,-3.9508980963178164
143,542612.454,0.24712303102625302,0.24712303102625302,0.276553031026253,0.0009368960748414447,0.0009368960748414447,0.0027694917894354903,1.30338186305695,1.12518279567348,1.12518279567348,59.156142950640096,-0.0617538666368656,-3.9841772807599867
144,542680.757,0.24712303102625302,0.24712303102625302,0.276553031026253,0.0009368960748414447,0.0009368960748414447,0.0027694917894354903,1.30338186305695,1.12518279567348,1.12518279567348,57.745383274702874,-0.17839392849127822,-4.014551563721256
145,542691.234,0.24712303102625302,0.24712303102625302,0.276553031026253,0.0009368960748414447,0.0009368960748414447,0.0027694917894354903,1.30338186305695,1.12518279567348,1.12518279567348,56.25152856407448,-0.17000758440859223,-3.975705237319608
146,542769.786,0.24712303102625302,0.24712303102625302,0.276553031026253,0.0009368960748414447,0.0009368960748414447,0.0027694917894354903,1.30338186305695,1.12518279567348,1.12518279567348,54.58440498733073,-0.17184433428651663,-3.9266405461611993
147,542778.63,0.24712303102625302,0.24712303102625302,0.276553031026253,0.0009368960748414447,0.0009368960748414447,0.0027694917894354903,1.30338186305695,1.12518279567348,1.12518279567348,52.91798503406961,-0.17255727321839304,-3.8767676409503014
148,542850.621,0.24712303102625302,0.24712303102625302,0.276553031026253,0.0009368960748414447,0.0009368960748414447,0.0027694917894354903,1.30338186305695,1.12518279567348,1.12518279567348,50.947338685166756,-0.24280284205710995,-3.8387300033472016
149,542877.916,0.24712303102625302,0.24712303102625302,0.276553031026253,0.0009368960748414447,0.0009368960748414447,0.0027694917894354903,1.30338186305695,1.12518279567348,1.12518279567348,48.978416618955954,-0.3115516625734904,-3.7979121187940503
150,542929.405,0.24712303102625302,0.24712303102625302,0.276553031026253,0.0009368960748414447,0.0009368960748414447,0.0027694917894354903,1.30338186305695,1.12518279567348,1.12518279567348,47.49269663144761,-0.28280243425327084,-3.698992209278718
151,542977.205,0.24712303102625302,0.24712303102625302,0.276553031026253,0.0009368960748414447,0.0009368960748414447,0.0027694917894354903,1.30338186305695,1.12518279567348,1.12518279567348,46.00890336035599,-0.2517169604234597,-3.600021658376575
152,543008.183,0.24712303102625302,0.24712303102625302,0.276553031026253,0.0009368960748414447,0.0009368960748414447,0.0027694917894354903,1.30338186305695,1.12518279567348,1.12518279567348,44.31833204676638,-0.1648470096201787,-3.56252398587897
153,543010.558,0.24712303102625302,0.24712303102625302,0.276553031026253,0.0009368960748414447,0.0009368960748414447,0.0027694917894354903,1.30338186305695,1.12518279567348,1.12518279567348,42.64448391633207,-0.07437941334371181,-3.527595060608722
154,543074.45,0.24712303102625302,0.24712303102625302,0.276553031026253,0.0009368960748414447,0.0009368960748414447,0.0027694917894354903,1.30338186305695,1.12518279567348,1.12518279567348,40.97322806625104,0.01652168006646591,-3.4944410376276043
155,543089.027,0.24712303102625302,0.24712303102625302,0.276553031026253,0.0009368960748414447,0.0009368960748414447,0.0027694917894354903,1.30338186305695,1.12518279567348,1.12518279567348,39.12675342608151,0.004816350004997937,-3.321236770778734
156,543167.58,0.24712303102625302,0.24712303102625302,0.276553031026253,0.0009368960748414447,0.0009368960748414447,0.0027694917894354903,1.30338186305695,1.12518279567348,1.12518279567348,37.630451569734305,0.11632766851420967,-3.230886759449635
157,543174.374,0.24712303102625302,0.24712303102625302,0.276553031026253,0.0009368960748414447,0.0009368960748414447,0.0027694917894354903,1.30338186305695,1.12518279567348,1.12518279567348,36.13744790495975,0.22975243132377088,-3.142680876020662
158,543248.416,0.24712303102625302,0.24712303102625302,0.276553031026253,0.0009368960748414447,0.0009368960748414447,0.0027694917894354903,1.30338186305695,1.12518279567348,1.12518279567348,34.404881026693666,0.31491611986564094,-2.9318443470311832
159,543273.664,0.24712303102625302,0.24712303102625302,0.276553031026253,0.0009368960748414447,0.0009368960748414447,0.0027694917894354903,1.30338186305695,1.12518279567348,1.12518279567348,32.67664116068409,0.40648542919857433,-2.723229732213607
160,543327.203,0.24712303102625302,0.24712303102625302,0.276553031026253,0.0009368960748414447,0.0009368960748414447,0.0027694917894354903,1.30338186305695,1.12518279567348,1.12518279567348,30.813051527941273,0.5640399244365911,-2.3107780924615895
161,543372.95,0.24712303102625302,0.24712303102625302,0.276553031026253,0.0009368960748414447,0.0009368960748414447,0.0027694917894354903,1.30338186305695,1.12518279567348,1.12518279567348,28.95537990678951,0.7352549842116214,-1.9032351682272592
162,543408.027,0.24712303102625302,0.24712303102625302,0.276553031026253,0.0009368960748414447,0.0009368960748414447,0.0027694917894354903,1.30338186305695,1.12518279567348,1.12518279567348,27.455211190290644,0.8604882074526948,-1.7205588445270654
163,543472.23,0.24712303102625302,0.24712303102625302,0.276553031026253,0.0009368960748414447,0.0009368960748414447,0.0027694917894354903,1.30338186305695,1.12518279567348,1.12518279567348,25.959349900211652,0.9904521628579959,-1.5410398890784591
164,543486.808,0.24712303102625302,0.24712303102625302,0.276553031026253,0.0009368960748414447,0.0009368960748414447,0.0027694917894354903,1.30338186305695,1.12518279567348,1.12518279567348,24.325604826183117,1.0051818766553915,-1.6953173291901156
165,543565.367,0.24712303102625302,0.24712303102625302,0.276553031026253,0.0009368960748414447,0.0009368960748414447,0.0027694917894354903,1.30338186305695,1.12518279567348,1.12518279567348,22.673430475160753,0.9325517993707599,-1.821327450075981
166,543567.742,0.24712303102625302,0.24712303102625302,0.276553031026253,0.0009368960748414447,0.0009368960748414447,0.0027694917894354903,1.30338186305695,1.12518279567348,1.12518279567348,21.036329502141374,0.860368812060111,-1.9491427067781413
167,543570.119,0.24712303102625302,0.24712303102625302,0.276553031026253,0.0009368960748414447,0.0009368960748414447,0.0027694917894354903,1.30338186305695,1.12518279567348,1.12518279567348,19.404628194489646,0.7846635957459395,-2.0751517485875537
168,543646.216,0.24712303102625302,0.24712303102625302,0.276553031026253,0.0009368960748414447,0.0009368960748414447,0.0027694917894354903,1.30338186305695,1.12518279567348,1.12518279567348,16.924690489903266,0.7142536300985504,-1.8450444633841412
169,543669.411,0.24712303102625302,0.24712303102625302,0.276553031026253,0.0009368960748414447,0.0009368960748414447,0.0027694917894354903,1.30338186305695,1.12518279567348,1.12518279567348,14.453214218829203,0.6546482629622453,-1.6129828727026145
170,543724.988,0.24712303102625302,0.24712303102625302,0.276553031026253,0.0009368960748414447,0.0009368960748414447,0.0027694917894354903,1.30338186305695,1.12518279567348,1.12518279567348,12.266597013514929,0.7759013417298097,-1.3699840623465094
171,543768.696,0.24712303102625302,0.24712303102625302,0.276553031026253,0.0009368960748414447,0.0009368960748414447,0.0027694917894354903,1.30338186305695,1.12518279567348,1.12518279567348,10.087930957065579,0.9064308866428414,-1.131824235087238
172,543805.824,0.24712303102625302,0.24712303102625302,0.276553031026253,0.0009368960748414447,0.0009368960748414447,0.0027694917894354903,1.30338186305695,1.12518279567348,1.12518279567348,8.383441446721664,0.9852286366128346,-1.0475164543617976
173,543867.977,0.24712303102625302,0.24712303102625302,0.276553031026253,0.0009368960748414447,0.0009368960748414447,0.0027694917894354903,1.30338186305695,1.12518279567348,1.12518279567348,6.684826762685459,1.0664412190552364,-0.9655003419452115
174,543884.605,0.24712303102625302,0.24712303102625302,0.276553031026253,0.0009368960748414447,0.0009368960748414447,0.0027694917894354903,1.30338186305695,1.12518279567348,1.12518279567348,5.352650311049263,1.123267340970174,-1.005308816750039
175,543965.213,0.24712303102625302,0.24712303102625302,0.276553031026253,0.0009368960748414447,0.0009368960748414447,0.0027694917894354903,1.30338186305695,1.12518279567348,1.12518279567348,4.371924156418001,1.0849259870460877,-1.2933780044690442
176,544043.987,0.24712303102625302,0.24712303102625302,0.276553031026253,0.0009368960748414447,0.0009368960748414447,0.0027694917894354903,1.30338186305695,1.12518279567348,1.12518279567348,3.2960506967374013,1.0327398047451934,-1.3982474996528365
177,544065.132,0.24712303102625302,0.24712303102625302,0.276553031026253,0.0009368960748414447,0.0009368960748414447,0.0027694917894354903,1.30338186305695,1.12518279567348,1.12518279567348,2.223862461260481,0.9786896739682895,-1.502112283335273
178,544122.765,0.24712303102625302,0.24712303102625302,0.276553031026253,0.0009368960748414447,0.0009368960748414447,0.0027694917894354903,1.30338186305695,1.12518279567348,1.12518279567348,0.19554550672939922,0.8975413755665012,-1.4282576840966472
179,544164.419,0.24712303102625302,0.24712303102625302,0.276553031026253,0.0009368960748414447,0.0009368960748414447,0.0027694917894354903,1.30338186305695,1.12518279567348,1.12518279567348,-1.826284634855153,0.8194192801163881,-1.3517846980668038
180,544203.599,0.24712303102625302,0.24712303102625302,0.276553031026253,0.0009368960748414447,0.0009368960748414447,0.0027694917894354903,1.30338186305695,1.12518279567348,1.12518279567348,-3.789993870588578,0.6591904023709036,-1.4664485709661979
181,544263.707,0.24712303102625302,0.24712303102625302,0.276553031026253,0.0009368960748414447,0.0009368960748414447,0.0027694917894354903,1.30338186305695,1.12518279567348,1.12518279567348,-5.747410845116886,0.49558962180613014,-1.5757110772493435
182,544282.384,0.24712303102625302,0.24712303102625302,0.276553031026253,0.0009368960748414447,0.0009368960748414447,0.0027694917894354903,1.30338186305695,1.12518279567348,1.12518279567348,-6.877280084893908,0.2930493139961247,-1.66992301905748
183,544362.988,0.24712303102625302,0.24712303102625302,0.276553031026253,0.0009368960748414447,0.0009368960748414447,0.0027694917894354903,1.30338186305695,1.12518279567348,1.12518279567348,-7.972682538787644,0.1565366326597108,-1.61675437672042
184,544441.767,0.24712303102625302,0.24712303102625302,0.276553031026253,0.0009368960748414447,0.0009368960748414447,0.0027694917894354903,1.30338186305695,1.12518279567348,1.12518279567348,-8.991734925080678,-0.0888947701764925,-1.5337918861942066
185,544460.862,0.24712303102625302,0.24712303102625302,0.276553031026253,0.0009368960748414447,0.0009368960748414447,0.0027694917894354903,1.30338186305695,1.12518279567348,1.12518279567348,-10.008585640679517,-0.33206643932542157,-1.4467634129254503
186,544522.593,0.24712303102625302,0.24712303102625302,0.276553031026253,0.0009368960748414447,0.0009368960748414447,0.0027694917894354903,1.30338186305695,1.12518279567348,1.12518279567348,-10.401668713032313,-0.36190772582405234,-1.4355344327379265
187,544560.147,0.24712303102625302,0.24712303102625302,0.276553031026253,0.0009368960748414447,0.0009368960748414447,0.0027694917894354903,1.30338186305695,1.12518279567348,1.12518279567348,-10.793917764251123,-0.391619307069927,-1.423895761463591
188,544601.375,0.24712303102625302,0.24712303102625302,0.276553031026253,0.0009368960748414447,0.0009368960748414447,0.0027694917894354903,1.30338186305695,1.12518279567348,1.12518279567348,-11.392940809429835,-0.4335255686729437,-1.3707274257034086
189,544659.428,0.24712303102625302,0.24712303102625302,0.276553031026253,0.0009368960748414447,0.0009368960748414447,0.0027694917894354903,1.30338186305695,1.12518279567348,1.12518279567348,-11.990668777526578,-0.47474537601159394,-1.3169615064619753
190,544680.158,0.24712303102625302,0.24712303102625302,0.276553031026253,0.0009368960748414447,0.0009368960748414447,0.0027694917894354903,1.30338186305695,1.12518279567348,1.12518279567348,-12.164341650606119,-0.4927948672244257,-1.3553560859288218
191,544758.716,0.24712303102625302,0.24712303102625302,0.276553031026253,0.0009368960748414447,0.0009368960748414447,0.0027694917894354903,1.30338186305695,1.12518279567348,1.12518279567348,-12.337652510676069,-0.5109675361813346,-1.3935696180986887
192,544760.991,0.24712303102625302,0.24712303102625302,0.276553031026253,0.0009368960748414447,0.0009368960748414447,0.0027694917894354903,1.30338186305695,1.12518279567348,1.12518279567348,-12.500787638864479,-0.5259266600813044,-1.449544905998646
193,544839.537,0.24712303102625302,0.24712303102625302,0.276553031026253,0.0009368960748414447,0.0009368960748414447,0.0027694917894354903,1.30338186305695,1.12518279567348,1.12518279567348,-12.649827276853147,-0.5931303894421956,-1.4638178576090297
194,544856.589,0.24712303102625302,0.24712303102625302,0.276553031026253,0.0009368960748414447,0.0009368960748414447,0.0027694917894354903,1.30338186305695,1.12518279567348,1.12518279567348,-12.798687221440579,-0.6602091363858176,-1.4778583053612306
195,544920.368,0.24712303102625302,0.24712303102625302,0.276553031026253,0.0009368960748414447,0.0009368960748414447,0.0027694917894354903,1.30338186305695,1.12518279567348,1.12518279567348,-12.882177292967633,-0.6763014405219403,-1.4414311186887823
196,544955.874,0.24712303102625302,0.24712303102625302,0.276553031026253,0.0009368960748414447,0.0009368960748414447,0.0027694917894354903,1.30338186305695,1.12518279567348,1.12518279567348,-12.965539962609732,-0.6922761479664287,-1.4048133811544612
197,544999.156,0.24712303102625302,0.24712303102625302,0.276553031026253,0.0009368960748414447,0.0009368960748414447,0.0027694917894354903,1.30338186305695,1.12518279567348,1.12518279567348,-13.110165002230172,-0.7804223293442638,-1.4360309137411686
198,545055.163,0.24712303102625302,0.24712303102625302,0.276553031026253,0.0009368960748414447,0.0009368960748414447,0.0027694917894354903,1.30338186305695,1.12518279567348,1.12518279567348,-13.254645546348144,-0.8684279226304472,-1.4670662579060179
199,545077.941,0.24712303102625302,0.24712303102625302,0.276553031026253,0.0009368960748414447,0.0009368960748414447,0.0027694917894354903,1.30338186305695,1.12518279567348,1.12518279567348,-12.812929065477162,-0.8232383663711937,-1.437614083760472
200,545154.445,0.24712303102625302,0.24712303102625302,0.276553031026253,0.0009368960748414447,0.0009368960748414447,0.0027694917894354903,1.30338186305695,1.12518279567348,1.12518279567348,-12.37218164504355,-0.7783658984982884,-1.407540995742719
201,545158.772,0.24712303102625302,0.24712303102625302,0.276553031026253,0.0009368960748414447,0.0009368960748414447,0.0027694917894354903,1.30338186305695,1.12518279567348,1.12518279567348,-12.444558155805497,-0.8229939940398845,-1.4148619951877286
202,545237.317,0.24712303102625302,0.24712303102625302,0.276553031026253,0.0009368960748414447,0.0009368960748414447,0.0027694917894354903,1.30338186305695,1.12518279567348,1.12518279567348,-12.240742610184917,-0.8022547415259949,-1.39940707763555
203,545252.32,0.24712303102625302,0.24712303102625302,0.276553031026253,0.0009368960748414447,0.0009368960748414447,0.0027694917894354903,1.30338186305695,1.12518279567348,1.12518279567348,-12.037493459991328,-0.7816187758455848,-1.3837006636114706
204,545318.155,0.24712303102625302,0.24712303102625302,0.276553031026253,0.0009368960748414447,0.0009368960748414447,0.0027694917894354903,1.30338186305695,1.12518279567348,1.12518279567348,-11.858489274159021,-0.7544227884484007,-1.391472715506296
205,545351.601,0.24712303102625302,0.24712303102625302,0.276553031026253,0.0009368960748414447,0.0009368960748414447,0.0027694917894354903,1.30338186305695,1.12518279567348,1.12518279567348,-11.679996402267914,-0.7273055875898208,-1.3990374300251924
206,545396.929,0.24712303102625302,0.24712303102625302,0.276553031026253,0.0009368960748414447,0.0009368960748414447,0.0027694917894354903,1.30338186305695,1.12518279567348,1.12518279567348,-11.591343563822452,-0.7045669295155064,-1.3963334214488454
207,545450.873,0.24712303102625302,0.24712303102625302,0.276553031026253,0.0009368960748414447,0.0009368960748414447,0.0027694917894354903,1.30338186305695,1.12518279567348,1.12518279567348,-11.502910434975359,-0.681905873421229,-1.3934878875114751
208,545477.76,0.24712303102625302,0.24712303102625302,0.276553031026253,0.0009368960748414447,0.0009368960748414447,0.0027694917894354903,1.30338186305695,1.12518279567348,1.12518279567348,-11.355599363583762,-0.6950249095149383,-1.3977447216409162
209,545550.161,0.24712303102625302,0.24712303102625302,0.276553031026253,0.0009368960748414447,0.0009368960748414447,0.0027694917894354903,1.30338186305695,1.12518279567348,1.12518279567348,-11.208721983261613,-0.7080810688858478,-1.4019747662008724
210,545556.544,0.24712303102625302,0.24712303102625302,0.276553031026253,0.0009368960748414447,0.0009368960748414447,0.0027694917894354903,1.30338186305695,1.12518279567348,1.12518279567348,-11.07923977629398,-0.720555395675604,-1.408684371254917
211,545637.144,0.24712303102625302,0.24712303102625302,0.276553031026253,0.0009368960748414447,0.0009368960748414447,0.0027694917894354903,1.30338186305695,1.12518279567348,1.12518279567348,-10.915702864760599,-0.7402439982174241,-1.4106006396557786
212,545648.037,0.24712303102625302,0.24712303102625302,0.276553031026253,0.0009368960748414447,0.0009368960748414447,0.0027694917894354903,1.30338186305695,1.12518279567348,1.12518279567348,-10.752676069611788,-0.7598384405720572,-1.4125059432878075
213,545715.925,0.24712303102625302,0.24712303102625302,0.276553031026253,0.0009368960748414447,0.0009368960748414447,0.0027694917894354903,1.30338186305695,1.12518279567348,1.12518279567348,-10.629041720384501,-0.7180300092633184,-1.417024045052265
214,545747.32,0.24712303102625302,0.24712303102625302,0.276553031026253,0.0009368960748414447,0.0009368960748414447,0.0027694917894354903,1.30338186305695,1.12518279567348,1.12518279567348,-10.50573530390251,-0.6763689534820477,-1.4213579530121807
215,545794.711,0.24712303102625302,0.24712303102625302,0.276553031026253,0.0009368960748414447,0.0009368960748414447,0.0027694917894354903,1.30338186305695,1.12518279567348,1.12518279567348,-10.415993700541971,-0.6598299324921113,-1.426807823809968
216,545846.61,0.24712303102625302,0.24712303102625302,0.276553031026253,0.0009368960748414447,0.0009368960748414447,0.0027694917894354903,1.30338186305695,1.12518279567348,1.12518279567348,-10.326438558729318,-0.6433406230619416,-1.4321765433898443
217,545875.545,0.24712303102625302,0.24712303102625302,0.276553031026253,0.0009368960748414447,0.0009368960748414447,0.0027694917894354903,1.30338186305695,1.12518279567348,1.12518279567348,-10.118940692818592,-0.6286436769975716,-1.4137649770456995
218,545945.895,0.24712303102625302,0.24712303102625302,0.276553031026253,0.0009368960748414447,0.0009368960748414447,0.0027694917894354903,1.30338186305695,1.12518279567348,1.12518279567348,-9.91206989019372,-0.6140113738908954,-1.3951836645684335
219,545954.322,0.24712303102625302,0.24712303102625302,0.276553031026253,0.0009368960748414447,0.0009368960748414447,0.0027694917894354903,1.30338186305695,1.12518279567348,1.12518279567348,-9.771114481838323,-0.5771949572598435,-1.4019592604588165
220,546034.929,0.24712303102625302,0.24712303102625302,0.276553031026253,0.0009368960748414447,0.0009368960748414447,0.0027694917894354903,1.30338186305695,1.12518279567348,1.12518279567348,-9.706760831866852,-0.5663501772185294,-1.4156139916869341
221,546043.773,0.24712303102625302,0.24712303102625302,0.276553031026253,0.0009368960748414447,0.0009368960748414447,0.0027694917894354903,1.30338186305695,1.12518279567348,1.12518279567348,-9.642616468420316,-0.5555525909434872,-1.4292393363812368
222,546113.715,0.24712303102625302,0.24712303102625302,0.276553031026253,0.0009368960748414447,0.0009368960748414447,0.0027694917894354903,1.30338186305695,1.12518279567348,1.12518279567348,-9.516675134494944,-0.5394356890466997,-1.4358586726367568
223,546143.06,0.24712303102625302,0.24712303102625302,0.276553031026253,0.0009368960748414447,0.0009368960748414447,0.0027694917894354903,1.30338186305695,1.12518279567348,1.12518279567348,-9.391040756649728,-0.523359553864749,-1.4424034847680303
224,546192.499,0.24712303102625302,0.24712303102625302,0.276553031026253,0.0009368960748414447,0.0009368960748414447,0.0027694917894354903,1.30338186305695,1.12518279567348,1.12518279567348,-9.245035325079026,-0.5143257740633972,-1.4567586688861034
225,546242.346,0.24712303102625302,0.24712303102625302,0.276553031026253,0.0009368960748414447,0.0009368960748414447,0.0027694917894354903,1.30338186305695,1.12518279567348,1.12518279567348,-9.099402133288013,-0.5052910330298983,-1.4710675983879165
226,546273.332,0.24712303102625302,0.24712303102625302,0.276553031026253,0.0009368960748414447,0.0009368960748414447,0.0027694917894354903,1.30338186305695,1.12518279567348,1.12518279567348,-8.981658825794517,-0.5137724103886583,-1.4813063929399664
227,546341.626,0.24712303102625302,0.24712303102625302,0.276553031026253,0.0009368960748414447,0.0009368960748414447,0.0027694917894354903,1.30338186305695,1.12518279567348,1.12518279567348,-8.86427796973815,-0.5221875469017109,-1.4915349305981853
228,546352.104,0.24712303102625302,0.24712303102625302,0.276553031026253,0.0009368960748414447,0.0009368960748414447,0.0027694917894354903,1.30338186305695,1.12518279567348,1.12518279567348,-8.739712175283042,-0.5105523314350133,-1.500571412217236
229,546432.714,0.24712303102625302,0.24712303102625302,0.276553031026253,0.0009368960748414447,0.0009368960748414447,0.0027694917894354903,1.30338186305695,1.12518279567348,1.12518279567348,-8.632834479395942,-0.4925738878674371,-1.4854718837398224
230,546439.508,0.24712303102625302,0.24712303102625302,0.276553031026253,0.0009368960748414447,0.0009368960748414447,0.0027694917894354903,1.30338186305695,1.12518279567348,1.12518279567348,-8.526272354996609,-0.47464847448448405,-1.470260882904801
231,546511.498,0.24712303102625302,0.24712303102625302,0.276553031026253,0.0009368960748414447,0.0009368960748414447,0.0027694917894354903,1.30338186305695,1.12518279567348,1.12518279567348,-8.372214975403706,-0.4596661221527527,-1.4807388557794414
232,546538.794,0.24712303102625302,0.24712303102625302,0.276553031026253,0.0009368960748414447,0.0009368960748414447,0.0027694917894354903,1.30338186305695,1.12518279567348,1.12518279567348,-8.218521614162409,-0.44471014416329346,-1.4911591079470823
233,546592.33,0.24712303102625302,0.24712303102625302,0.276553031026253,0.0009368960748414447,0.0009368960748414447,0.0027694917894354903,1.30338186305695,1.12518279567348,1.12518279567348,-8.121443480927296,-0.4399990918757249,-1.5007036754414236
234,546638.073,0.24712303102625302,0.24712303102625302,0.276553031026253,0.0009368960748414447,0.0009368960748414447,0.0027694917894354903,1.30338186305695,1.12518279567348,1.12518279567348,-8.024582735702145,-0.4352850351377114,-1.5102276642978631
235,546671.103,0.24712303102625302,0.24712303102625302,0.276553031026253,0.0009368960748414447,0.0009368960748414447,0.0027694917894354903,1.30338186305695,1.12518279567348,1.12518279567348,-7.900544549061509,-0.4492067568294184,-1.5123083066978034
236,546737.353,0.24712303102625302,0.24712303102625302,0.276553031026253,0.0009368960748414447,0.0009368960748414447,0.0027694917894354903,1.30338186305695,1.12518279567348,1.12518279567348,-7.776887000177874,-0.46302795060176577,-1.5143784610035504
237,546749.881,0.24712303102625302,0.24712303102625302,0.276553031026253,0.0009368960748414447,0.0009368960748414447,0.0027694917894354903,1.30338186305695,1.12518279567348,1.12518279567348,-7.675785614826582,-0.4619604585689611,-1.5248256310892006
