#Format version: 1.0
time[us],accX[mg],accY[mg],accZ[mg],gyroX[mdps],gyroY[mdps],gyroZ[mdps],magnX[mG],magnY[mG],magnZ[mG],press[hPa],temp[C],hum[%RH],newData,interrupts,fsm1,fsm2,fsm3,fsm4,fsm5,fsm6,fsm7,fsm8,fsm9,fsm10,fsm11,fsm12,fsm13,fsm14,fsm15,fsm16,
33767412,-56,-120,1021,-770,-1386,1955,-46,276,-319,,,,0x078,,,,,,,,,,,,,,,,,,
33794708,-56,-120,1021,-770,-1386,1955,-34,270,-333,,,,0x020,,,,,,,,,,,,,,,,,,
33848244,-54,-117,1015,-1701,-1233,1736,-34,270,-333,,,,0x058,,,,,,,,,,,,,,,,,,
33891938,-54,-117,1015,-1701,-1233,1736,-37,285,-325,,,,0x020,,,,,,,,,,,,,,,,,,
33927025,-50,-132,1003,748,975,1146,-37,285,-325,,,,0x058,,,,,,,,,,,,,,,,,,
33991225,-50,-132,1003,748,975,1146,-43,282,-330,,,,0x020,,,,,,,,,,,,,,,,,,
34007855,-53,-132,1023,2677,1426,1815,-43,282,-330,,,,0x018,,,,,,,,,,,,,,,,,,
34086416,-58,-119,992,2178,2550,1828,-43,282,-330,,,,0x058,,,,,,,,,,,,,,,,,,
34091160,-58,-119,992,2178,2550,1828,-31,277,-331,,,,0x020,,,,,,,,,,,,,,,,,,
34167245,-58,-126,1007,-446,-253,1583,-31,277,-331,,,,0x058,,,,,,,,,,,,,,,,,,
34190440,-58,-126,1007,-446,-253,1583,-30,270,-321,,,,0x020,,,,,,,,,,,,,,,,,,
34246029,-56,-120,1016,1841,-936,1452,-30,270,-321,,,,0x058,,,,,,,,,,,,,,,,,,
34289727,-56,-120,1016,1841,-936,1452,-42,279,-331,,,,0x020,,,,,,,,,,,,,,,,,,
34324817,-60,-116,1005,3150,-61,1491,-42,279,-331,,,,0x058,,,,,,,,,,,,,,,,,,
34389017,-60,-116,1005,3150,-61,1491,-34,265,-325,,,,0x020,,,,,,,,,,,,,,,,,,
34405643,-59,-110,1017,1990,-700,634,-34,265,-325,,,,0x018,,,,,,,,,,,,,,,,,,
34484196,-57,-109,1009,2576,363,183,-34,265,-325,,,,0x058,,,,,,,,,,,,,,,,,,
34486889,-57,-109,1009,2576,363,183,-43,267,-327,,,,0x020,,,,,,,,,,,,,,,,,,
34565029,-60,-111,1004,6531,1343,695,-43,267,-327,,,,0x058,,,,,,,,,,,,,,,,,,
34586175,-60,-111,1004,6531,1343,695,-40,265,-331,,,,0x020,,,,,,,,,,,,,,,,,,
34643817,-60,-104,998,12263,2213,2231,-40,265,-331,,,,0x058,,,,,,,,,,,,,,,,,,
34685464,-60,-104,998,12263,2213,2231,-37,252,-325,,,,0x020,,,,,,,,,,,,,,,,,,
34724651,-64,-57,1054,23769,4235,6387,-37,252,-325,,,,0x058,,,,,,,,,,,,,,,,,,
34784745,-64,-57,1054,23769,4235,6387,-37,234,-321,,,,0x020,,,,,,,,,,,,,,,,,,
34803425,-73,-27,1014,23305,10640,3648,-37,234,-321,,,,0x018,,,,,,,,,,,,,,,,,,
34881980,-73,-27,1014,22351,7175,1907,-45,229,-328,,,,0x070,,,,,,,,,,,,,,,,,,
34884573,-90,4,1032,22351,7175,1907,-45,229,-328,,,,0x008,,,,,,,,,,,,,,,,,,
34962815,-113,60,1009,32821,9563,1452,-45,229,-328,,,,0x058,,,,,,,,,,,,,,,,,,
34981911,-113,60,1009,32821,9563,1452,-57,201,-318,,,,0x020,,,,,,,,,,,,,,,,,,
35041599,-119,98,978,44375,11156,-61,-57,201,-318,,,,0x058,,,,,,,,,,,,,,,,,,
35081192,-119,98,978,44375,11156,-61,-52,171,-321,,,,0x020,,,,,,,,,,,,,,,,,,
35122422,-142,148,960,50898,7984,-647,-52,171,-321,,,,0x018,,,,,,,,,,,,,,,,,,
35180476,-142,148,960,50898,7984,-647,-52,136,-310,,,,0x060,,,,,,,,,,,,,,,,,,
35201205,-152,281,940,53620,-310,-6575,-52,136,-310,,,,0x018,,,,,,,,,,,,,,,,,,
35279762,-152,281,940,53620,-310,-6575,-60,102,-282,,,,0x060,,,,,,,,,,,,,,,,,,
35282037,-124,280,960,73898,-6304,-20173,-60,102,-282,,,,0x018,,,,,,,,,,,,,,,,,,
35360594,-131,467,916,72795,-3976,-10473,-60,102,-282,,,,0x058,,,,,,,,,,,,,,,,,,
35377638,-131,467,916,72795,-3976,-10473,-67,49,-253,,,,0x020,,,,,,,,,,,,,,,,,,
35441430,-129,519,874,102300,-770,-14761,-67,49,-253,,,,0x058,,,,,,,,,,,,,,,,,,
35476927,-129,519,874,102300,-770,-14761,-63,15,-222,,,,0x020,,,,,,,,,,,,,,,,,,
35520210,-147,581,788,85653,4108,-8426,-63,15,-222,,,,0x018,,,,,,,,,,,,,,,,,,
35576216,-147,581,788,85653,4108,-8426,-60,1,-186,,,,0x060,,,,,,,,,,,,,,,,,,
35598991,-159,706,697,48588,4046,997,-60,1,-186,,,,0x018,,,,,,,,,,,,,,,,,,
35675497,-159,706,697,48588,4046,997,-72,-21,-154,,,,0x060,,,,,,,,,,,,,,,,,,
35679825,-166,741,611,77896,6326,-218,-72,-21,-154,,,,0x018,,,,,,,,,,,,,,,,,,
35758384,-159,835,574,93843,5403,-726,-72,-21,-154,,,,0x058,,,,,,,,,,,,,,,,,,
35775428,-159,835,574,93843,5403,-726,-73,-49,-84,,,,0x020,,,,,,,,,,,,,,,,,,
35839220,-171,900,379,112717,14437,-1653,-73,-49,-84,,,,0x058,,,,,,,,,,,,,,,,,,
35874716,-171,900,379,112717,14437,-1653,-69,-54,-16,,,,0x020,,,,,,,,,,,,,,,,,,
35917994,-174,953,237,120815,1925,2651,-69,-54,-16,,,,0x018,,,,,,,,,,,,,,,,,,
35971948,-174,953,237,120815,1925,2651,-66,-64,49,,,,0x060,,,,,,,,,,,,,,,,,,
35998828,-169,988,152,108176,-9143,3548,-66,-64,49,,,,0x018,,,,,,,,,,,,,,,,,,
36071234,-169,988,152,108176,-9143,3548,-75,-39,94,,,,0x060,,,,,,,,,,,,,,,,,,
36077610,-161,1004,-18,93384,-6991,4,-75,-39,94,,,,0x018,,,,,,,,,,,,,,,,,,
36156171,-161,1004,-18,97260,-9130,-2056,-75,-39,94,,,,0x050,,,,,,,,,,,,,,,,,,
36158546,-172,967,-111,97260,-9130,-2056,-75,-39,94,,,,0x008,,,,,,,,,,,,,,,,,,
36171174,-172,967,-111,97260,-9130,-2056,-73,-22,150,,,,0x020,,,,,,,,,,,,,,,,,,
36237007,-180,970,-220,91555,-1973,507,-73,-22,150,,,,0x018,,,,,,,,,,,,,,,,,,
36270461,-180,970,-220,91555,-1973,507,-66,1,201,,,,0x060,,,,,,,,,,,,,,,,,,
36315790,-164,895,-353,90326,-2130,-4116,-66,1,201,,,,0x018,,,,,,,,,,,,,,,,,,
36369741,-164,895,-353,90326,-2130,-4116,-73,31,232,,,,0x060,,,,,,,,,,,,,,,,,,
36396620,-178,860,-426,60895,-11208,-1496,-73,31,232,,,,0x018,,,,,,,,,,,,,,,,,,
36469027,-178,860,-426,60895,-11208,-1496,-85,52,267,,,,0x060,,,,,,,,,,,,,,,,,,
36475404,-190,873,-475,52390,-8264,-2016,-85,52,267,,,,0x018,,,,,,,,,,,,,,,,,,
36556012,-191,782,-571,47639,-3683,-8067,-85,52,267,,,,0x058,,,,,,,,,,,,,,,,,,
36566906,-191,782,-571,47639,-3683,-8067,-90,61,259,,,,0x020,,,,,,,,,,,,,,,,,,
36634785,-216,758,-548,21472,-4983,-2970,-90,61,259,,,,0x018,,,,,,,,,,,,,,,,,,
36666187,-216,758,-548,21472,-4983,-2970,-85,64,270,,,,0x060,,,,,,,,,,,,,,,,,,
36715617,-212,762,-509,-7660,2314,1872,-85,64,270,,,,0x018,,,,,,,,,,,,,,,,,,
36765474,-212,762,-509,-7660,2314,1872,-82,43,250,,,,0x060,,,,,,,,,,,,,,,,,,
36794402,-182,798,-535,-41645,13059,4235,-82,43,250,,,,0x018,,,,,,,,,,,,,,,,,,
36864757,-182,798,-535,-41645,13059,4235,-72,18,214,,,,0x060,,,,,,,,,,,,,,,,,,
36873184,-174,844,-450,-58108,13995,7218,-72,18,214,,,,0x018,,,,,,,,,,,,,,,,,,
36953778,-154,960,-434,-96621,19538,6208,-72,18,214,,,,0x058,,,,,,,,,,,,,,,,,,
36964671,-154,960,-434,-96621,19538,6208,-67,-10,169,,,,0x020,,,,,,,,,,,,,,,,,,
37032551,-168,1020,-215,-90680,3027,5993,-67,-10,169,,,,0x018,,,,,,,,,,,,,,,,,,
37061904,-168,1020,-215,-90680,3027,5993,-67,-33,103,,,,0x060,,,,,,,,,,,,,,,,,,
37113380,-177,980,79,-93607,2537,-673,-67,-33,103,,,,0x018,,,,,,,,,,,,,,,,,,
37161185,-177,980,79,-93607,2537,-673,-58,-43,31,,,,0x060,,,,,,,,,,,,,,,,,,
37192165,-124,934,99,-98354,18970,-1505,-58,-43,31,,,,0x018,,,,,,,,,,,,,,,,,,
37260472,-124,934,99,-98354,18970,-1505,-69,-45,-42,,,,0x060,,,,,,,,,,,,,,,,,,
37273000,-129,979,204,-107428,10736,4939,-69,-45,-42,,,,0x018,,,,,,,,,,,,,,,,,,
37351546,-153,965,387,-117731,6982,5906,-69,-45,-42,,,,0x018,,,,,,,,,,,,,,,,,,
37360390,-153,965,387,-117731,6982,5906,-66,-31,-117,,,,0x060,,,,,,,,,,,,,,,,,,
37432375,-144,824,633,-132803,-5486,-796,-66,-31,-117,,,,0x018,,,,,,,,,,,,,,,,,,
37459671,-144,824,633,-132803,-5486,-796,-61,9,-199,,,,0x020,,,,,,,,,,,,,,,,,,
37511162,-154,693,694,-135996,-2887,-3128,-61,9,-199,,,,0x058,,,,,,,,,,,,,,,,,,
37558960,-154,693,694,-135996,-2887,-3128,-72,58,-252,,,,0x020,,,,,,,,,,,,,,,,,,
37589946,-151,524,845,-120872,-4873,-4335,-72,58,-252,,,,0x058,,,,,,,,,,,,,,,,,,
37656189,-151,524,845,-120872,-4873,-4335,-61,135,-306,,,,0x020,,,,,,,,,,,,,,,,,,
37670775,-155,361,915,-133280,2546,1719,-61,135,-306,,,,0x058,,,,,,,,,,,,,,,,,,
37749326,-156,223,901,-138245,-5543,1933,-61,135,-306,,,,0x018,,,,,,,,,,,,,,,,,,
37756120,-156,223,901,-138245,-5543,1933,-52,196,-319,,,,0x020,,,,,,,,,,,,,,,,,,
37830162,-113,-9,1044,-111628,-26381,-5145,-52,196,-319,,,,0x058,,,,,,,,,,,,,,,,,,
37855408,-113,-9,1044,-111628,-26381,-5145,-54,250,-333,,,,0x020,,,,,,,,,,,,,,,,,,
37908944,-99,-88,1001,-88200,-8907,3259,-54,250,-333,,,,0x058,,,,,,,,,,,,,,,,,,
37954688,-99,-88,1001,-88200,-8907,3259,-49,297,-324,,,,0x020,,,,,,,,,,,,,,,,,,
37989777,-78,-184,1020,-79117,-8496,4825,-49,297,-324,,,,0x058,,,,,,,,,,,,,,,,,,
38053977,-78,-184,1020,-79117,-8496,4825,-51,349,-334,,,,0x020,,,,,,,,,,,,,,,,,,
38068554,-82,-271,963,-71067,-126,5486,-51,349,-334,,,,0x018,,,,,,,,,,,,,,,,,,
38147115,-82,-271,963,-68026,1347,3084,-51,349,-334,,,,0x050,,,,,,,,,,,,,,,,,,
38149489,-84,-368,946,-68026,1347,3084,-51,349,-334,,,,0x008,,,,,,,,,,,,,,,,,,
38151865,-84,-368,946,-68026,1347,3084,-49,379,-301,,,,0x020,,,,,,,,,,,,,,,,,,
38227959,-106,-424,922,-69991,-481,3998,-49,379,-301,,,,0x058,,,,,,,,,,,,,,,,,,
38251155,-106,-424,922,-69991,-481,3998,-52,429,-292,,,,0x020,,,,,,,,,,,,,,,,,,
38306741,-77,-554,818,-93406,-3071,-5355,-52,429,-292,,,,0x058,,,,,,,,,,,,,,,,,,
38350435,-77,-554,818,-93406,-3071,-5355,-43,475,-255,,,,0x020,,,,,,,,,,,,,,,,,,
38387571,-76,-676,780,-102200,-13466,-2878,-43,475,-255,,,,0x058,,,,,,,,,,,,,,,,,,
38449720,-76,-676,780,-102200,-13466,-2878,-33,532,-217,,,,0x020,,,,,,,,,,,,,,,,,,
38466347,-51,-743,616,-122605,-12783,-835,-33,532,-217,,,,0x018,,,,,,,,,,,,,,,,,,
38546957,-34,-857,556,-113400,-9047,-8846,-33,568,-163,,,,0x078,,,,,,,,,,,,,,,,,,
38625731,-14,-963,406,-123383,-5810,-13737,-33,568,-163,,,,0x058,,,,,,,,,,,,,,,,,,
38646877,-14,-963,406,-123383,-5810,-13737,-22,607,-97,,,,0x020,,,,,,,,,,,,,,,,,,
38704517,-14,-963,406,-111650,2848,-10915,-22,607,-97,,,,0x050,,,,,,,,,,,,,,,,,,
38706891,12,-1009,231,-111650,2848,-10915,-22,607,-97,,,,0x008,,,,,,,,,,,,,,,,,,
38746172,12,-1009,231,-111650,2848,-10915,-34,624,-57,,,,0x020,,,,,,,,,,,,,,,,,,
38785358,8,-999,104,-92115,4598,-2598,-34,624,-57,,,,0x058,,,,,,,,,,,,,,,,,,
38845458,8,-999,104,-92115,4598,-2598,-28,633,-4,,,,0x020,,,,,,,,,,,,,,,,,,
38864135,5,-965,-15,-86476,5276,-3941,-28,633,-4,,,,0x018,,,,,,,,,,,,,,,,,,
38944737,40,-980,-162,-77227,4554,-14100,-15,619,36,,,,0x078,,,,,,,,,,,,,,,,,,
39023517,68,-1028,-267,-66889,-6142,-14354,-15,619,36,,,,0x058,,,,,,,,,,,,,,,,,,
39042611,68,-1028,-267,-66889,-6142,-14354,-18,621,78,,,,0x020,,,,,,,,,,,,,,,,,,
39104347,70,-1000,-252,-60825,-7485,-10053,-18,621,78,,,,0x058,,,,,,,,,,,,,,,,,,
39141892,70,-1000,-252,-60825,-7485,-10053,-7,618,96,,,,0x020,,,,,,,,,,,,,,,,,,
39183121,61,-986,-381,-47665,-1255,-2786,-7,618,96,,,,0x018,,,,,,,,,,,,,,,,,,
39241177,61,-986,-381,-47665,-1255,-2786,-3,601,121,,,,0x060,,,,,,,,,,,,,,,,,,
39261906,61,-986,-381,-32738,-2778,3885,-3,601,121,,,,0x010,,,,,,,,,,,,,,,,,,
39264281,61,-877,-399,-32738,-2778,3885,-3,601,121,,,,0x008,,,,,,,,,,,,,,,,,,
39340476,61,-877,-399,-32738,-2778,3885,-13,597,129,,,,0x060,,,,,,,,,,,,,,,,,,
39342751,71,-871,-431,-27973,-2340,1938,-13,597,129,,,,0x018,,,,,,,,,,,,,,,,,,
39421310,61,-893,-421,-14433,109,2909,-13,597,129,,,,0x058,,,,,,,,,,,,,,,,,,
39440405,61,-893,-421,-14433,109,2909,-15,610,124,,,,0x020,,,,,,,,,,,,,,,,,,
39502139,35,-886,-468,-8579,1439,4541,-15,610,124,,,,0x058,,,,,,,,,,,,,,,,,,
39539682,35,-886,-468,-8579,1439,4541,-7,600,136,,,,0x020,,,,,,,,,,,,,,,,,,
39580912,49,-891,-472,-3084,-459,848,-7,600,136,,,,0x018,,,,,,,,,,,,,,,,,,
39638972,49,-891,-472,-3084,-459,848,-10,597,117,,,,0x060,,,,,,,,,,,,,,,,,,
39661749,53,-885,-442,20173,2056,-931,-10,597,117,,,,0x018,,,,,,,,,,,,,,,,,,
39736208,53,-885,-442,20173,2056,-931,-9,612,76,,,,0x060,,,,,,,,,,,,,,,,,,
39740535,55,-943,-407,56713,5276,-2275,-9,612,76,,,,0x018,,,,,,,,,,,,,,,,,,
39821138,63,-963,-296,104698,5775,2078,-9,612,76,,,,0x058,,,,,,,,,,,,,,,,,,
39836131,63,-963,-296,104698,5775,2078,-12,619,15,,,,0x020,,,,,,,,,,,,,,,,,,
39899922,59,-1034,-45,104448,468,2865,-12,619,15,,,,0x058,,,,,,,,,,,,,,,,,,
39935421,59,-1034,-45,104448,468,2865,-19,612,-34,,,,0x020,,,,,,,,,,,,,,,,,,
39980749,47,-987,21,113120,9209,6991,-19,612,-34,,,,0x018,,,,,,,,,,,,,,,,,,
40034705,47,-987,21,113120,9209,6991,-15,592,-102,,,,0x060,,,,,,,,,,,,,,,,,,
40059531,35,-1004,198,125829,6759,4996,-15,592,-102,,,,0x018,,,,,,,,,,,,,,,,,,
40133988,35,-1004,198,125829,6759,4996,-19,550,-172,,,,0x060,,,,,,,,,,,,,,,,,,
40138316,28,-874,339,126800,3906,4886,-19,550,-172,,,,0x018,,,,,,,,,,,,,,,,,,
40218926,28,-871,588,136342,-665,-5206,-19,550,-172,,,,0x058,,,,,,,,,,,,,,,,,,
40231871,28,-871,588,136342,-665,-5206,-16,504,-229,,,,0x020,,,,,,,,,,,,,,,,,,
40297701,23,-727,686,123676,5009,3303,-16,504,-229,,,,0x018,,,,,,,,,,,,,,,,,,
40331157,23,-727,686,123676,5009,3303,-31,427,-270,,,,0x060,,,,,,,,,,,,,,,,,,
40378535,7,-631,851,120850,10850,4795,-31,427,-270,,,,0x018,,,,,,,,,,,,,,,,,,
40430439,7,-631,851,120850,10850,4795,-22,391,-298,,,,0x060,,,,,,,,,,,,,,,,,,
40457319,-9,-479,895,104396,10062,3591,-22,391,-298,,,,0x018,,,,,,,,,,,,,,,,,,
40529727,-9,-479,895,104396,10062,3591,-30,354,-310,,,,0x060,,,,,,,,,,,,,,,,,,
40538154,-29,-328,896,86191,6986,4869,-30,354,-310,,,,0x018,,,,,,,,,,,,,,,,,,
40616709,-30,-306,976,73670,4786,4353,-30,354,-310,,,,0x058,,,,,,,,,,,,,,,,,,
40629655,-30,-306,976,73670,4786,4353,-30,303,-316,,,,0x020,,,,,,,,,,,,,,,,,,
40697531,-40,-221,1028,58406,4326,9135,-30,303,-316,,,,0x018,,,,,,,,,,,,,,,,,,
40726885,-40,-221,1028,58406,4326,9135,-36,274,-315,,,,0x060,,,,,,,,,,,,,,,,,,
40776316,-56,-112,1008,61149,10220,13076,-36,274,-315,,,,0x018,,,,,,,,,,,,,,,,,,
40826175,-56,-112,1008,61149,10220,13076,-33,259,-321,,,,0x060,,,,,,,,,,,,,,,,,,
40855106,-56,-112,1008,38906,1806,8693,-33,259,-321,,,,0x010,,,,,,,,,,,,,,,,,,
40857481,-62,-46,1018,38906,1806,8693,-33,259,-321,,,,0x008,,,,,,,,,,,,,,,,,,
40925474,-62,-46,1018,38906,1806,8693,-34,237,-318,,,,0x060,,,,,,,,,,,,,,,,,,
40935951,-56,-22,1032,33652,-428,3163,-34,237,-318,,,,0x018,,,,,,,,,,,,,,,,,,
41014496,-47,11,1006,13326,-669,-358,-34,237,-318,,,,0x058,,,,,,,,,,,,,,,,,,
41025391,-47,11,1006,13326,-669,-358,-34,234,-315,,,,0x020,,,,,,,,,,,,,,,,,,
41095325,-49,10,996,6776,-1303,-3338,-34,234,-315,,,,0x018,,,,,,,,,,,,,,,,,,
41124680,-49,10,996,6776,-1303,-3338,-34,226,-309,,,,0x060,,,,,,,,,,,,,,,,,,
41174111,-47,-19,1015,2581,-3307,-3465,-34,226,-309,,,,0x018,,,,,,,,,,,,,,,,,,
41223966,-47,-19,1015,2581,-3307,-3465,-37,226,-303,,,,0x060,,,,,,,,,,,,,,,,,,
41254944,-46,-23,1045,1273,-3771,490,-37,226,-303,,,,0x018,,,,,,,,,,,,,,,,,,
41323246,-46,-23,1045,1273,-3771,490,-33,220,-310,,,,0x060,,,,,,,,,,,,,,,,,,
41333723,-44,18,1022,4296,315,2423,-33,220,-310,,,,0x018,,,,,,,,,,,,,,,,,,
41414326,-50,38,1006,3027,1863,966,-33,220,-310,,,,0x018,,,,,,,,,,,,,,,,,,
41421120,-50,38,1006,3027,1863,966,-33,225,-318,,,,0x060,,,,,,,,,,,,,,,,,,
41493097,-56,14,1011,2034,-875,-910,-33,225,-318,,,,0x018,,,,,,,,,,,,,,,,,,
41520392,-56,14,1011,2034,-875,-910,-30,217,-315,,,,0x020,,,,,,,,,,,,,,,,,,
41571880,-56,14,1011,481,-2121,-678,-30,217,-315,,,,0x050,,,,,,,,,,,,,,,,,,
41574255,-44,16,1000,481,-2121,-678,-30,217,-315,,,,0x008,,,,,,,,,,,,,,,,,,
41619681,-44,16,1000,481,-2121,-678,-31,232,-303,,,,0x020,,,,,,,,,,,,,,,,,,
41652720,-36,9,1018,157,-3180,-148,-31,232,-303,,,,0x058,,,,,,,,,,,,,,,,,,
41718971,-36,9,1018,157,-3180,-148,-33,226,-310,,,,0x020,,,,,,,,,,,,,,,,,,
41731506,-36,18,1013,1251,-1933,800,-33,226,-310,,,,0x058,,,,,,,,,,,,,,,,,,
41812108,-31,17,1029,691,-1802,958,-33,226,-310,,,,0x018,,,,,,,,,,,,,,,,,,
41816852,-31,17,1029,691,-1802,958,-28,226,-313,,,,0x020,,,,,,,,,,,,,,,,,,
41890890,-36,20,1036,-1391,-704,914,-28,226,-313,,,,0x058,,,,,,,,,,,,,,,,,,
41916133,-36,20,1036,-1391,-704,914,-25,225,-312,,,,0x020,,,,,,,,,,,,,,,,,,
41971724,-37,21,1011,-1596,590,393,-25,225,-312,,,,0x058,,,,,,,,,,,,,,,,,,
42015422,-37,21,1011,-1596,590,393,-43,219,-316,,,,0x020,,,,,,,,,,,,,,,,,,
42050510,-39,3,1027,231,26,424,-43,219,-316,,,,0x058,,,,,,,,,,,,,,,,,,
42114711,-39,3,1027,231,26,424,-25,222,-304,,,,0x020,,,,,,,,,,,,,,,,,,
42131338,-40,25,999,1225,1557,1246,-25,222,-304,,,,0x058,,,,,,,,,,,,,,,,,,
42209882,-33,20,991,-1417,-1715,-682,-25,222,-304,,,,0x018,,,,,,,,,,,,,,,,,,
42214625,-33,20,991,-1417,-1715,-682,-34,226,-303,,,,0x020,,,,,,,,,,,,,,,,,,
42290714,-25,-1,1038,1019,-4291,-1093,-34,226,-303,,,,0x058,,,,,,,,,,,,,,,,,,
42313910,-25,-1,1038,1019,-4291,-1093,-24,226,-318,,,,0x020,,,,,,,,,,,,,,,,,,
42369498,-25,7,1007,962,-498,761,-24,226,-318,,,,0x058,,,,,,,,,,,,,,,,,,
42411142,-25,7,1007,962,-498,761,-25,226,-310,,,,0x020,,,,,,,,,,,,,,,,,,
42448279,-28,23,1012,848,-1211,1448,-25,226,-310,,,,0x058,,,,,,,,,,,,,,,,,,
42510427,-28,23,1012,848,-1211,1448,-19,226,-309,,,,0x020,,,,,,,,,,,,,,,,,,
42529105,-34,22,1013,914,-3027,1697,-19,226,-309,,,,0x018,,,,,,,,,,,,,,,,,,
42607664,-17,24,1032,-1531,-4755,367,-19,226,-309,,,,0x058,,,,,,,,,,,,,,,,,,
42610357,-17,24,1032,-1531,-4755,367,-31,231,-309,,,,0x020,,,,,,,,,,,,,,,,,,
42688496,-10,0,1027,-945,-1413,-1137,-31,231,-309,,,,0x058,,,,,,,,,,,,,,,,,,
42709641,-10,0,1027,-945,-1413,-1137,-22,231,-306,,,,0x020,,,,,,,,,,,,,,,,,,
42767279,-13,8,1017,83,-205,-319,-22,231,-306,,,,0x058,,,,,,,,,,,,,,,,,,
42808927,-13,8,1017,83,-205,-319,-22,222,-321,,,,0x020,,,,,,,,,,,,,,,,,,
42848116,-12,12,1017,875,126,140,-22,222,-321,,,,0x058,,,,,,,,,,,,,,,,,,
42908216,-12,12,1017,875,126,140,-13,232,-307,,,,0x020,,,,,,,,,,,,,,,,,,
42926893,-12,6,1014,161,-634,-70,-13,232,-307,,,,0x018,,,,,,,,,,,,,,,,,,
43007497,-10,11,1003,494,-2432,669,-21,229,-303,,,,0x078,,,,,,,,,,,,,,,,,,
43086276,1,4,1004,-1067,-9800,1015,-21,229,-303,,,,0x058,,,,,,,,,,,,,,,,,,
43105370,1,4,1004,-1067,-9800,1015,-12,231,-300,,,,0x020,,,,,,,,,,,,,,,,,,
43165057,23,2,1003,-5118,-19670,3955,-12,231,-300,,,,0x058,,,,,,,,,,,,,,,,,,
43204656,23,2,1003,-5118,-19670,3955,0,234,-288,,,,0x020,,,,,,,,,,,,,,,,,,
43245881,70,-5,979,-3924,-31609,3591,0,234,-288,,,,0x018,,,,,,,,,,,,,,,,,,
43303934,70,-5,979,-3924,-31609,3591,28,237,-270,,,,0x060,,,,,,,,,,,,,,,,,,
43324662,116,15,968,13,-44388,984,28,237,-270,,,,0x018,,,,,,,,,,,,,,,,,,
43403223,116,15,968,13,-44388,984,49,241,-258,,,,0x060,,,,,,,,,,,,,,,,,,
43405498,181,-47,1000,4081,-54775,-1194,49,241,-258,,,,0x018,,,,,,,,,,,,,,,,,,
43484057,291,-17,997,-7726,-57369,6693,49,241,-258,,,,0x058,,,,,,,,,,,,,,,,,,
43501101,291,-17,997,-7726,-57369,6693,81,241,-240,,,,0x020,,,,,,,,,,,,,,,,,,
43564886,365,-14,990,-6409,-59937,6772,81,241,-240,,,,0x058,,,,,,,,,,,,,,,,,,
43600378,365,-14,990,-6409,-59937,6772,106,244,-204,,,,0x020,,,,,,,,,,,,,,,,,,
43643658,434,-34,916,1351,-64719,2633,106,244,-204,,,,0x018,,,,,,,,,,,,,,,,,,
43699667,434,-34,916,1351,-64719,2633,123,244,-175,,,,0x060,,,,,,,,,,,,,,,,,,
43724494,517,1,868,6413,-71295,2511,123,244,-175,,,,0x018,,,,,,,,,,,,,,,,,,
43798947,517,1,868,6413,-71295,2511,148,250,-139,,,,0x060,,,,,,,,,,,,,,,,,,
43803274,597,-52,844,10491,-69553,1172,148,250,-139,,,,0x018,,,,,,,,,,,,,,,,,,
43883882,664,-8,771,4900,-67208,6160,148,250,-139,,,,0x058,,,,,,,,,,,,,,,,,,
43898877,664,-8,771,4900,-67208,6160,169,240,-102,,,,0x020,,,,,,,,,,,,,,,,,,
43962669,748,22,654,5858,-67462,6510,169,240,-102,,,,0x058,,,,,,,,,,,,,,,,,,
43998166,748,22,654,5858,-67462,6510,183,238,-61,,,,0x020,,,,,,,,,,,,,,,,,,
44041443,822,-22,641,5197,-72874,577,183,238,-61,,,,0x018,,,,,,,,,,,,,,,,,,
44097448,822,-22,641,5197,-72874,577,186,249,-31,,,,0x060,,,,,,,,,,,,,,,,,,
44122276,827,-9,530,-6400,-61381,8575,186,249,-31,,,,0x018,,,,,,,,,,,,,,,,,,
44194683,827,-9,530,-6400,-61381,8575,180,256,13,,,,0x060,,,,,,,,,,,,,,,,,,
44201061,885,-11,436,-7717,-61376,8085,180,256,13,,,,0x018,,,,,,,,,,,,,,,,,,
44281669,951,-109,382,-4624,-70848,3430,180,256,13,,,,0x058,,,,,,,,,,,,,,,,,,
44294612,951,-109,382,-4624,-70848,3430,196,259,52,,,,0x020,,,,,,,,,,,,,,,,,,
44360440,960,-23,294,-1623,-69794,8990,196,259,52,,,,0x018,,,,,,,,,,,,,,,,,,
44393893,960,-23,294,-1623,-69794,8990,184,264,93,,,,0x060,,,,,,,,,,,,,,,,,,
44441274,961,-39,210,6422,-63481,-2025,184,264,93,,,,0x018,,,,,,,,,,,,,,,,,,
44493178,961,-39,210,6422,-63481,-2025,177,264,120,,,,0x060,,,,,,,,,,,,,,,,,,
44520057,973,-67,150,6440,-54000,-6951,177,264,120,,,,0x018,,,,,,,,,,,,,,,,,,
44592467,973,-67,150,6440,-54000,-6951,180,264,142,,,,0x060,,,,,,,,,,,,,,,,,,
44598845,973,-67,150,3898,-41811,-5468,180,264,142,,,,0x010,,,,,,,,,,,,,,,,,,
44601220,984,-61,103,3898,-41811,-5468,180,264,142,,,,0x008,,,,,,,,,,,,,,,,,,
44679458,1000,-51,81,6510,-27173,-2205,180,264,142,,,,0x058,,,,,,,,,,,,,,,,,,
44690352,1000,-51,81,6510,-27173,-2205,163,256,154,,,,0x020,,,,,,,,,,,,,,,,,,
44758231,982,-2,103,4865,-10333,1833,163,256,154,,,,0x018,,,,,,,,,,,,,,,,,,
44789635,982,-2,103,4865,-10333,1833,172,255,157,,,,0x060,,,,,,,,,,,,,,,,,,
44839066,986,-39,63,3088,6391,-3206,172,255,157,,,,0x018,,,,,,,,,,,,,,,,,,
44888922,986,-39,63,3088,6391,-3206,166,258,145,,,,0x060,,,,,,,,,,,,,,,,,,
44917853,1007,37,102,-844,22006,-6203,166,258,145,,,,0x018,,,,,,,,,,,,,,,,,,
44988209,1007,37,102,-844,22006,-6203,171,243,118,,,,0x060,,,,,,,,,,,,,,,,,,
44998685,1021,-43,140,-4401,46541,-24364,171,243,118,,,,0x018,,,,,,,,,,,,,,,,,,
45077236,930,61,225,-9734,54796,-17031,171,243,118,,,,0x058,,,,,,,,,,,,,,,,,,
45088130,930,61,225,-9734,54796,-17031,181,226,76,,,,0x020,,,,,,,,,,,,,,,,,,
45158064,949,29,297,-5180,63481,-21595,181,226,76,,,,0x018,,,,,,,,,,,,,,,,,,
45187417,949,29,297,-5180,63481,-21595,187,207,34,,,,0x060,,,,,,,,,,,,,,,,,,
45236845,971,38,454,-3972,85575,-25869,187,207,34,,,,0x018,,,,,,,,,,,,,,,,,,
45284647,971,38,454,-3972,85575,-25869,172,196,-28,,,,0x060,,,,,,,,,,,,,,,,,,
45315626,885,103,414,4738,110022,-20343,172,196,-28,,,,0x018,,,,,,,,,,,,,,,,,,
45383934,885,103,414,4738,110022,-20343,168,180,-81,,,,0x060,,,,,,,,,,,,,,,,,,
45396462,752,182,649,1925,94084,-17141,168,180,-81,,,,0x018,,,,,,,,,,,,,,,,,,
45475013,683,178,716,3005,90356,-12009,168,180,-81,,,,0x018,,,,,,,,,,,,,,,,,,
45483865,683,178,716,3005,90356,-12009,148,190,-118,,,,0x060,,,,,,,,,,,,,,,,,,
45555845,622,153,747,-5670,79541,-8933,148,190,-118,,,,0x018,,,,,,,,,,,,,,,,,,
45583138,622,153,747,-5670,79541,-8933,121,180,-159,,,,0x060,,,,,,,,,,,,,,,,,,
45634621,538,158,885,-10010,69601,-9358,121,180,-159,,,,0x018,,,,,,,,,,,,,,,,,,
45682419,538,158,885,-10010,69601,-9358,105,178,-198,,,,0x020,,,,,,,,,,,,,,,,,,
45715456,449,238,890,-10920,68407,-4003,105,178,-198,,,,0x058,,,,,,,,,,,,,,,,,,
45781708,449,238,890,-10920,68407,-4003,72,181,-228,,,,0x020,,,,,,,,,,,,,,,,,,
45794243,373,100,968,-11029,66465,-8365,72,181,-228,,,,0x058,,,,,,,,,,,,,,,,,,
45872787,373,100,968,-15575,77673,3167,72,181,-228,,,,0x010,,,,,,,,,,,,,,,,,,
45875163,274,61,1016,-15575,77673,3167,72,181,-228,,,,0x008,,,,,,,,,,,,,,,,,,
45879590,274,61,1016,-15575,77673,3167,30,187,-249,,,,0x020,,,,,,,,,,,,,,,,,,
45953627,170,105,975,-22736,91008,12026,30,187,-249,,,,0x058,,,,,,,,,,,,,,,,,,
45978873,170,105,975,-22736,91008,12026,-4,205,-289,,,,0x020,,,,,,,,,,,,,,,,,,
46032414,58,44,985,-22155,91105,8758,-4,205,-289,,,,0x058,,,,,,,,,,,,,,,,,,
46078162,58,44,985,-22155,91105,8758,-64,208,-322,,,,0x020,,,,,,,,,,,,,,,,,,
46113247,-80,52,993,-14415,87640,4405,-64,208,-322,,,,0x058,,,,,,,,,,,,,,,,,,
46177442,-80,52,993,-14415,87640,4405,-106,214,-333,,,,0x020,,,,,,,,,,,,,,,,,,
46192021,-197,89,983,-6811,88458,3565,-106,214,-333,,,,0x058,,,,,,,,,,,,,,,,,,
46272622,-302,46,948,905,91336,-542,-106,214,-333,,,,0x018,,,,,,,,,,,,,,,,,,
46275316,-302,46,948,905,91336,-542,-148,208,-343,,,,0x020,,,,,,,,,,,,,,,,,,
46351409,-398,-31,979,-10290,97461,2541,-148,208,-343,,,,0x058,,,,,,,,,,,,,,,,,,
46374605,-398,-31,979,-10290,97461,2541,-226,214,-348,,,,0x020,,,,,,,,,,,,,,,,,,
46430188,-398,-31,979,4860,115088,12241,-226,214,-348,,,,0x050,,,,,,,,,,,,,,,,,,
46432564,-552,13,765,4860,115088,12241,-226,214,-348,,,,0x008,,,,,,,,,,,,,,,,,,
46473891,-552,13,765,4860,115088,12241,-288,202,-327,,,,0x020,,,,,,,,,,,,,,,,,,
46511027,-687,83,698,12083,93069,1496,-288,202,-327,,,,0x058,,,,,,,,,,,,,,,,,,
46573178,-687,83,698,12083,93069,1496,-327,207,-328,,,,0x020,,,,,,,,,,,,,,,,,,
46589806,-755,13,778,-8120,78404,-10115,-327,207,-328,,,,0x018,,,,,,,,,,,,,,,,,,
46670414,-826,-12,571,-9852,101036,-14039,-327,207,-328,,,,0x058,,,,,,,,,,,,,,,,,,
46673107,-826,-12,571,-9852,101036,-14039,-397,220,-303,,,,0x020,,,,,,,,,,,,,,,,,,
46749193,-887,-22,382,-8662,99706,-7533,-397,220,-303,,,,0x058,,,,,,,,,,,,,,,,,,
46770336,-887,-22,382,-8662,99706,-7533,-439,223,-270,,,,0x020,,,,,,,,,,,,,,,,,,
46830027,-936,28,288,-4991,83728,-2401,-439,223,-270,,,,0x058,,,,,,,,,,,,,,,,,,
46869626,-936,28,288,-4991,83728,-2401,-474,231,-241,,,,0x020,,,,,,,,,,,,,,,,,,
46908817,-954,-44,204,-10530,68849,-9725,-474,231,-241,,,,0x058,,,,,,,,,,,,,,,,,,
46968916,-954,-44,204,-10530,68849,-9725,-501,249,-207,,,,0x020,,,,,,,,,,,,,,,,,,
46989643,-963,-62,130,-8435,55881,-1627,-501,249,-207,,,,0x018,,,,,,,,,,,,,,,,,,
47068196,-993,-8,120,-5044,43308,7323,-528,232,-196,,,,0x078,,,,,,,,,,,,,,,,,,
47146975,-993,-8,120,-3285,39361,1741,-528,232,-196,,,,0x050,,,,,,,,,,,,,,,,,,
47149350,-1017,-64,23,-3285,39361,1741,-528,232,-196,,,,0x008,,,,,,,,,,,,,,,,,,
47168128,-1017,-64,23,-3285,39361,1741,-526,225,-180,,,,0x020,,,,,,,,,,,,,,,,,,
47227820,-1022,1,41,-10793,31981,5726,-526,225,-180,,,,0x058,,,,,,,,,,,,,,,,,,
47265369,-1022,1,41,-10793,31981,5726,-537,238,-150,,,,0x020,,,,,,,,,,,,,,,,,,
47306596,-1016,-31,-67,-11506,29697,-196,-537,238,-150,,,,0x018,,,,,,,,,,,,,,,,,,
47364651,-1016,-31,-67,-11506,29697,-196,-538,238,-157,,,,0x060,,,,,,,,,,,,,,,,,,
47387429,-1002,-37,-80,-6216,12551,1264,-538,238,-157,,,,0x018,,,,,,,,,,,,,,,,,,
47463931,-1002,-37,-80,-6216,12551,1264,-546,232,-165,,,,0x060,,,,,,,,,,,,,,,,,,
47466206,-1013,27,-59,704,-389,5985,-546,232,-165,,,,0x018,,,,,,,,,,,,,,,,,,
47546817,-1013,-38,-73,-433,-5350,-2305,-546,232,-165,,,,0x058,,,,,,,,,,,,,,,,,,
47563862,-1013,-38,-73,-433,-5350,-2305,-552,232,-156,,,,0x020,,,,,,,,,,,,,,,,,,
47625601,-1004,-23,-95,6243,-15793,2905,-552,232,-156,,,,0x058,,,,,,,,,,,,,,,,,,
47663144,-1004,-23,-95,6243,-15793,2905,-523,219,-186,,,,0x020,,,,,,,,,,,,,,,,,,
47704375,-981,-30,-19,8500,-47901,14000,-523,219,-186,,,,0x018,,,,,,,,,,,,,,,,,,
47760380,-981,-30,-19,8500,-47901,14000,-486,205,-220,,,,0x060,,,,,,,,,,,,,,,,,,
47785209,-984,36,141,5258,-69938,20418,-486,205,-220,,,,0x018,,,,,,,,,,,,,,,,,,
47859668,-984,36,141,5258,-69938,20418,-459,205,-241,,,,0x060,,,,,,,,,,,,,,,,,,
47863995,-970,74,193,7245,-65222,16419,-459,205,-241,,,,0x018,,,,,,,,,,,,,,,,,,
47944599,-964,130,346,-2646,-61963,7258,-459,205,-241,,,,0x058,,,,,,,,,,,,,,,,,,
47959592,-964,130,346,-2646,-61963,7258,-433,207,-274,,,,0x020,,,,,,,,,,,,,,,,,,
48023383,-909,73,349,1356,-69868,-3981,-433,207,-274,,,,0x058,,,,,,,,,,,,,,,,,,
48058877,-909,73,349,1356,-69868,-3981,-382,192,-292,,,,0x020,,,,,,,,,,,,,,,,,,
48104209,-841,59,486,9716,-98914,-4025,-382,192,-292,,,,0x018,,,,,,,,,,,,,,,,,,
48158167,-841,59,486,9716,-98914,-4025,-318,216,-328,,,,0x060,,,,,,,,,,,,,,,,,,
48182993,-770,71,621,-14135,-106321,-1946,-318,216,-328,,,,0x018,,,,,,,,,,,,,,,,,,
48255399,-770,71,621,-14135,-106321,-1946,-258,226,-343,,,,0x060,,,,,,,,,,,,,,,,,,
48261777,-682,-9,719,-19486,-104951,-3150,-258,226,-343,,,,0x018,,,,,,,,,,,,,,,,,,
48342387,-543,-14,705,-10955,-102466,892,-258,226,-343,,,,0x058,,,,,,,,,,,,,,,,,,
48355330,-543,-14,705,-10955,-102466,892,-193,228,-339,,,,0x020,,,,,,,,,,,,,,,,,,
48421167,-424,-15,932,-8999,-111076,2135,-193,228,-339,,,,0x018,,,,,,,,,,,,,,,,,,
48454621,-424,-15,932,-8999,-111076,2135,-121,235,-333,,,,0x060,,,,,,,,,,,,,,,,,,
48501999,-283,-17,1019,10268,-105822,4816,-121,235,-333,,,,0x018,,,,,,,,,,,,,,,,,,
48553904,-283,-17,1019,10268,-105822,4816,-76,214,-315,,,,0x060,,,,,,,,,,,,,,,,,,
48580781,-177,82,1080,26215,-89127,10325,-76,214,-315,,,,0x018,,,,,,,,,,,,,,,,,,
48653185,-177,82,1080,26215,-89127,10325,-49,207,-306,,,,0x060,,,,,,,,,,,,,,,,,,
48661612,-106,111,987,16769,-58874,14266,-49,207,-306,,,,0x018,,,,,,,,,,,,,,,,,,
48740173,-37,80,1010,7525,-45574,9533,-49,207,-306,,,,0x058,,,,,,,,,,,,,,,,,,
48751067,-37,80,1010,7525,-45574,9533,-19,211,-292,,,,0x020,,,,,,,,,,,,,,,,,,
48818945,-37,80,1010,6098,-35516,3701,-19,211,-292,,,,0x010,,,,,,,,,,,,,,,,,,
48821320,-1,121,1024,6098,-35516,3701,-19,211,-292,,,,0x008,,,,,,,,,,,,,,,,,,
48850357,-1,121,1024,6098,-35516,3701,-6,207,-282,,,,0x060,,,,,,,,,,,,,,,,,,
48899785,20,111,1022,5678,-23498,223,-6,207,-282,,,,0x018,,,,,,,,,,,,,,,,,,
48949636,20,111,1022,5678,-23498,223,-4,205,-279,,,,0x060,,,,,,,,,,,,,,,,,,
48978565,41,142,1024,-354,-15553,-3456,-4,205,-279,,,,0x018,,,,,,,,,,,,,,,,,,
49048924,41,142,1024,-354,-15553,-3456,0,205,-276,,,,0x060,,,,,,,,,,,,,,,,,,
49059401,60,162,1002,3661,-14367,-19880,0,205,-276,,,,0x018,,,,,,,,,,,,,,,,,,
49137954,88,97,1014,-1653,-18484,-41790,0,205,-276,,,,0x058,,,,,,,,,,,,,,,,,,
49146799,88,97,1014,-1653,-18484,-41790,1,183,-268,,,,0x020,,,,,,,,,,,,,,,,,,
49218777,122,168,1011,975,-22176,-61950,1,183,-268,,,,0x018,,,,,,,,,,,,,,,,,,
49246080,122,168,1011,975,-22176,-61950,0,163,-276,,,,0x060,,,,,,,,,,,,,,,,,,
49297562,102,190,951,1841,-18243,-74003,0,163,-276,,,,0x018,,,,,,,,,,,,,,,,,,
49345368,102,190,951,1841,-18243,-74003,-12,136,-264,,,,0x060,,,,,,,,,,,,,,,,,,
49376347,122,139,1036,1391,-29010,-86633,-12,136,-264,,,,0x018,,,,,,,,,,,,,,,,,,
49444650,122,139,1036,1391,-29010,-86633,-13,130,-265,,,,0x060,,,,,,,,,,,,,,,,,,
49457177,168,135,1011,-9143,-18291,-84892,-13,130,-265,,,,0x018,,,,,,,,,,,,,,,,,,
49535727,158,93,1022,-28472,-5337,-74274,-13,130,-265,,,,0x018,,,,,,,,,,,,,,,,,,
49544577,158,93,1022,-28472,-5337,-74274,-42,115,-280,,,,0x060,,,,,,,,,,,,,,,,,,
49616561,116,108,1019,-20518,9349,-74545,-42,115,-280,,,,0x018,,,,,,,,,,,,,,,,,,
49641808,116,108,1019,-20518,9349,-74545,-76,124,-286,,,,0x020,,,,,,,,,,,,,,,,,,
49695345,80,89,977,-13461,12219,-73237,-76,124,-286,,,,0x058,,,,,,,,,,,,,,,,,,
49741089,80,89,977,-13461,12219,-73237,-81,111,-283,,,,0x020,,,,,,,,,,,,,,,,,,
49776176,30,130,1026,-8610,1925,-68932,-81,111,-283,,,,0x058,,,,,,,,,,,,,,,,,,
49840376,30,130,1026,-8610,1925,-68932,-120,115,-303,,,,0x020,,,,,,,,,,,,,,,,,,
49854963,38,125,967,-8671,5538,-79786,-120,115,-303,,,,0x058,,,,,,,,,,,,,,,,,,
49933514,38,125,967,131,-4335,-84630,-120,115,-303,,,,0x010,,,,,,,,,,,,,,,,,,
49935889,45,121,1016,131,-4335,-84630,-120,115,-303,,,,0x008,,,,,,,,,,,,,,,,,,
49940318,45,121,1016,131,-4335,-84630,-142,97,-292,,,,0x020,,,,,,,,,,,,,,,,,,
50014359,37,101,1045,1754,-708,-77424,-142,97,-292,,,,0x058,,,,,,,,,,,,,,,,,,
50039604,37,101,1045,1754,-708,-77424,-169,87,-309,,,,0x020,,,,,,,,,,,,,,,,,,
50093140,27,85,1000,-8050,3714,-75573,-169,87,-309,,,,0x058,,,,,,,,,,,,,,,,,,
50138884,27,85,1000,-8050,3714,-75573,-193,94,-306,,,,0x020,,,,,,,,,,,,,,,,,,
50173972,7,58,1022,-16008,-402,-71277,-193,94,-306,,,,0x058,,,,,,,,,,,,,,,,,,
50236123,7,58,1022,-16008,-402,-71277,-216,106,-313,,,,0x020,,,,,,,,,,,,,,,,,,
50252750,4,63,984,-19477,-783,-58388,-216,106,-313,,,,0x058,,,,,,,,,,,,,,,,,,
50333346,9,12,1014,-12617,-1575,-53007,-216,106,-313,,,,0x018,,,,,,,,,,,,,,,,,,
50336039,9,12,1014,-12617,-1575,-53007,-232,120,-309,,,,0x020,,,,,,,,,,,,,,,,,,
50412126,3,-38,1012,-8439,-3968,-41260,-232,120,-309,,,,0x058,,,,,,,,,,,,,,,,,,
50435323,3,-38,1012,-8439,-3968,-41260,-244,120,-319,,,,0x020,,,,,,,,,,,,,,,,,,
50492961,0,-16,1036,-7065,-6930,-23397,-244,120,-319,,,,0x058,,,,,,,,,,,,,,,,,,
50534607,0,-16,1036,-7065,-6930,-23397,-235,135,-322,,,,0x020,,,,,,,,,,,,,,,,,,
50571743,13,-7,1015,-2651,-927,-6164,-235,135,-322,,,,0x058,,,,,,,,,,,,,,,,,,
50633886,13,-7,1015,-2651,-927,-6164,-237,133,-309,,,,0x020,,,,,,,,,,,,,,,,,,
50650515,23,-33,1004,280,-1443,5293,-237,133,-309,,,,0x018,,,,,,,,,,,,,,,,,,
50731124,13,-28,1023,3570,-2918,22229,-226,121,-319,,,,0x078,,,,,,,,,,,,,,,,,,
50809896,28,24,1042,15645,6750,46795,-226,121,-319,,,,0x058,,,,,,,,,,,,,,,,,,
50831039,28,24,1042,15645,6750,46795,-216,103,-312,,,,0x020,,,,,,,,,,,,,,,,,,
50890727,-26,63,1011,18558,21420,47403,-216,103,-312,,,,0x058,,,,,,,,,,,,,,,,,,
50930324,-26,63,1011,18558,21420,47403,-211,106,-306,,,,0x020,,,,,,,,,,,,,,,,,,
50969513,-38,45,1013,10990,8732,45723,-211,106,-306,,,,0x058,,,,,,,,,,,,,,,,,,
51029612,-38,45,1013,10990,8732,45723,-190,99,-294,,,,0x020,,,,,,,,,,,,,,,,,,
51048289,-38,45,1013,6645,3801,52906,-190,99,-294,,,,0x010,,,,,,,,,,,,,,,,,,
51050665,-35,75,984,6645,3801,52906,-190,99,-294,,,,0x008,,,,,,,,,,,,,,,,,,
51128909,-12,85,983,6943,-1575,50579,-174,93,-307,,,,0x078,,,,,,,,,,,,,,,,,,
51207686,-3,159,1024,21240,-3920,53882,-174,93,-307,,,,0x058,,,,,,,,,,,,,,,,,,
51226779,-3,159,1024,21240,-3920,53882,-156,90,-292,,,,0x020,,,,,,,,,,,,,,,,,,
51288519,22,59,1047,9126,-3666,49761,-156,90,-292,,,,0x058,,,,,,,,,,,,,,,,,,
51326066,22,59,1047,9126,-3666,49761,-117,85,-298,,,,0x020,,,,,,,,,,,,,,,,,,
51367294,50,97,1000,-2226,-2091,75473,-117,85,-298,,,,0x018,,,,,,,,,,,,,,,,,,
51425347,50,97,1000,-2226,-2091,75473,-99,105,-292,,,,0x060,,,,,,,,,,,,,,,,,,
51448126,40,145,992,-7975,3920,83658,-99,105,-292,,,,0x018,,,,,,,,,,,,,,,,,,
51524631,40,145,992,-7975,3920,83658,-93,109,-282,,,,0x060,,,,,,,,,,,,,,,,,,
51526906,35,88,1043,-1710,9170,72502,-93,109,-282,,,,0x018,,,,,,,,,,,,,,,,,,
51607518,33,138,973,5053,16677,72751,-93,109,-282,,,,0x058,,,,,,,,,,,,,,,,,,
51624562,33,138,973,5053,16677,72751,-81,121,-286,,,,0x020,,,,,,,,,,,,,,,,,,
51686298,43,77,996,4497,8645,66714,-81,121,-286,,,,0x058,,,,,,,,,,,,,,,,,,
51721792,43,77,996,4497,8645,66714,-61,135,-294,,,,0x020,,,,,,,,,,,,,,,,,,
51765074,32,28,1093,665,6212,79555,-61,135,-294,,,,0x018,,,,,,,,,,,,,,,,,,
51821077,32,28,1093,665,6212,79555,-49,163,-294,,,,0x060,,,,,,,,,,,,,,,,,,
51845907,32,115,994,-6020,21144,97930,-49,163,-294,,,,0x018,,,,,,,,,,,,,,,,,,
51920367,32,115,994,-6020,21144,97930,-43,169,-295,,,,0x060,,,,,,,,,,,,,,,,,,
51924693,1,131,1009,-4856,22911,95086,-43,169,-295,,,,0x018,,,,,,,,,,,,,,,,,,
52005296,-4,113,984,11983,18370,93590,-43,169,-295,,,,0x058,,,,,,,,,,,,,,,,,,
52020290,-4,113,984,11983,18370,93590,-27,187,-285,,,,0x020,,,,,,,,,,,,,,,,,,
52084082,-1,114,992,-1369,726,86415,-27,187,-285,,,,0x058,,,,,,,,,,,,,,,,,,
52119576,-1,114,992,-1369,726,86415,-19,220,-288,,,,0x020,,,,,,,,,,,,,,,,,,
52162858,-1,114,992,-19267,3626,77039,-19,220,-288,,,,0x010,,,,,,,,,,,,,,,,,,
52165233,22,100,1029,-19267,3626,77039,-19,220,-288,,,,0x008,,,,,,,,,,,,,,,,,,
52216826,22,100,1029,-19267,3626,77039,-21,237,-285,,,,0x060,,,,,,,,,,,,,,,,,,
52243706,-13,87,1005,4830,8561,79415,-21,237,-285,,,,0x018,,,,,,,,,,,,,,,,,,
52316112,-13,87,1005,4830,8561,79415,-15,237,-288,,,,0x060,,,,,,,,,,,,,,,,,,
52322489,0,76,984,12123,5481,73381,-15,237,-288,,,,0x018,,,,,,,,,,,,,,,,,,
52403090,14,76,984,-1299,673,74466,-15,237,-288,,,,0x058,,,,,,,,,,,,,,,,,,
52416034,14,76,984,-1299,673,74466,9,274,-282,,,,0x020,,,,,,,,,,,,,,,,,,
52481867,35,94,1023,-8338,-17228,78806,9,274,-282,,,,0x018,,,,,,,,,,,,,,,,,,
52515322,35,94,1023,-8338,-17228,78806,7,303,-277,,,,0x060,,,,,,,,,,,,,,,,,,
52562701,92,30,1040,-17828,-10622,65086,7,303,-277,,,,0x018,,,,,,,,,,,,,,,,,,
52614605,92,30,1040,-17828,-10622,65086,13,340,-277,,,,0x060,,,,,,,,,,,,,,,,,,
52641481,96,64,1044,-20133,3994,68228,13,340,-277,,,,0x018,,,,,,,,,,,,,,,,,,
52713887,96,64,1044,-20133,3994,68228,-1,351,-276,,,,0x060,,,,,,,,,,,,,,,,,,
52720265,73,43,1049,-16511,12556,55597,-1,351,-276,,,,0x018,,,,,,,,,,,,,,,,,,
52800875,34,-36,1028,-14945,12932,42144,-1,351,-276,,,,0x058,,,,,,,,,,,,,,,,,,
52811770,34,-36,1028,-14945,12932,42144,-21,366,-283,,,,0x020,,,,,,,,,,,,,,,,,,
52879648,-2,-79,1012,-17718,10066,33757,-21,366,-283,,,,0x018,,,,,,,,,,,,,,,,,,
52911050,-2,-79,1012,-17718,10066,33757,-25,406,-279,,,,0x060,,,,,,,,,,,,,,,,,,
52960477,1,-32,989,-12197,4274,35586,-25,406,-279,,,,0x018,,,,,,,,,,,,,,,,,,
53010334,1,-32,989,-12197,4274,35586,-24,402,-282,,,,0x060,,,,,,,,,,,,,,,,,,
53039266,-3,-20,975,205,1058,18948,-24,402,-282,,,,0x018,,,,,,,,,,,,,,,,,,
53109623,-3,-20,975,205,1058,18948,-21,403,-283,,,,0x060,,,,,,,,,,,,,,,,,,
53120099,13,-120,1040,1688,-5197,7293,-21,403,-283,,,,0x018,,,,,,,,,,,,,,,,,,
53198651,1,-138,1034,-8365,8719,22124,-21,403,-283,,,,0x058,,,,,,,,,,,,,,,,,,
53207496,1,-138,1034,-8365,8719,22124,-36,414,-282,,,,0x020,,,,,,,,,,,,,,,,,,
53277427,-27,-90,994,-3018,17622,25803,-36,414,-282,,,,0x018,,,,,,,,,,,,,,,,,,
53306781,-27,-90,994,-3018,17622,25803,-40,426,-286,,,,0x060,,,,,,,,,,,,,,,,,,
53358263,-22,-64,972,1701,7485,29666,-40,426,-286,,,,0x018,,,,,,,,,,,,,,,,,,
53406070,-22,-64,972,1701,7485,29666,-57,420,-295,,,,0x060,,,,,,,,,,,,,,,,,,
53437047,-50,-37,1031,9301,214,28468,-57,420,-295,,,,0x018,,,,,,,,,,,,,,,,,,
53505350,-50,-37,1031,9301,214,28468,-49,423,-286,,,,0x060,,,,,,,,,,,,,,,,,,
53517877,-78,-46,976,9034,4173,19083,-49,423,-286,,,,0x018,,,,,,,,,,,,,,,,,,
53596426,-52,-68,1027,-2025,-8146,6632,-49,423,-286,,,,0x018,,,,,,,,,,,,,,,,,,
53603221,-52,-68,1027,-2025,-8146,6632,-52,429,-301,,,,0x060,,,,,,,,,,,,,,,,,,
53677257,-48,-80,1047,2555,-4707,11536,-52,429,-301,,,,0x018,,,,,,,,,,,,,,,,,,
53702501,-48,-80,1047,2555,-4707,11536,-64,430,-291,,,,0x020,,,,,,,,,,,,,,,,,,
53756039,-33,-40,1029,743,-5823,12455,-64,430,-291,,,,0x058,,,,,,,,,,,,,,,,,,
53801783,-33,-40,1029,743,-5823,12455,-54,426,-292,,,,0x020,,,,,,,,,,,,,,,,,,
53834822,-18,-36,1039,11274,-3294,9988,-54,426,-292,,,,0x058,,,,,,,,,,,,,,,,,,
53901072,-18,-36,1039,11274,-3294,9988,-64,433,-295,,,,0x020,,,,,,,,,,,,,,,,,,
53915657,-43,-28,1020,13868,4917,8295,-64,433,-295,,,,0x058,,,,,,,,,,,,,,,,,,
