#Format version: 1.0
time[us],accX[mg],accY[mg],accZ[mg],gyroX[mdps],gyroY[mdps],gyroZ[mdps],magnX[mG],magnY[mG],magnZ[mG],press[hPa],temp[C],hum[%RH],newData,interrupts,fsm1,fsm2,fsm3,fsm4,fsm5,fsm6,fsm7,fsm8,fsm9,fsm10,fsm11,fsm12,fsm13,fsm14,fsm15,fsm16,
8267488,22,-25,1020,783,-140,345,-15,234,-288,,,,0x078,,,,,,,,,,,,,,,,,,
8313232,22,-25,1020,783,-140,345,-10,232,-288,,,,0x020,,,,,,,,,,,,,,,,,,
8346271,24,-17,1024,748,354,708,-10,232,-288,,,,0x058,,,,,,,,,,,,,,,,,,
8412517,24,-17,1024,748,354,708,-13,232,-289,,,,0x020,,,,,,,,,,,,,,,,,,
8425046,20,-14,1014,249,721,402,-13,232,-289,,,,0x018,,,,,,,,,,,,,,,,,,
8505658,19,-12,1013,-126,148,560,-13,232,-289,,,,0x058,,,,,,,,,,,,,,,,,,
8510401,19,-12,1013,-126,148,560,-15,235,-277,,,,0x020,,,,,,,,,,,,,,,,,,
8584438,15,-26,1011,455,739,-65,-15,235,-277,,,,0x058,,,,,,,,,,,,,,,,,,
8609682,15,-26,1011,455,739,-65,-19,228,-286,,,,0x020,,,,,,,,,,,,,,,,,,
8663220,12,-14,1010,1360,1640,800,-19,228,-286,,,,0x058,,,,,,,,,,,,,,,,,,
8708967,12,-14,1010,1360,1640,800,-19,228,-298,,,,0x020,,,,,,,,,,,,,,,,,,
8744057,8,2,1023,1378,3836,175,-19,228,-298,,,,0x058,,,,,,,,,,,,,,,,,,
8808256,8,2,1023,1378,3836,175,-25,234,-294,,,,0x020,,,,,,,,,,,,,,,,,,
8822833,-1,-17,1008,3351,6002,-1338,-25,234,-294,,,,0x018,,,,,,,,,,,,,,,,,,
8903439,-2,-18,1031,2100,6160,-1408,-25,234,-294,,,,0x058,,,,,,,,,,,,,,,,,,
8906132,-2,-18,1031,2100,6160,-1408,-27,234,-292,,,,0x020,,,,,,,,,,,,,,,,,,
8982222,-11,0,1050,-1001,10263,74,-27,234,-292,,,,0x058,,,,,,,,,,,,,,,,,,
9005417,-11,0,1050,-1001,10263,74,-30,226,-291,,,,0x020,,,,,,,,,,,,,,,,,,
9061009,-36,-24,1023,2104,15785,-262,-30,226,-291,,,,0x058,,,,,,,,,,,,,,,,,,
9104707,-36,-24,1023,2104,15785,-262,-48,228,-303,,,,0x020,,,,,,,,,,,,,,,,,,
9141844,-60,-3,1015,1299,12385,1159,-48,228,-303,,,,0x058,,,,,,,,,,,,,,,,,,
9203988,-60,-3,1015,1299,12385,1159,-40,226,-300,,,,0x020,,,,,,,,,,,,,,,,,,
9220616,-67,7,1037,-3080,11956,595,-40,226,-300,,,,0x018,,,,,,,,,,,,,,,,,,
9299171,-67,7,1037,-2730,18291,-918,-40,226,-300,,,,0x050,,,,,,,,,,,,,,,,,,
9301546,-96,-14,1002,-2730,18291,-918,-48,238,-303,,,,0x028,,,,,,,,,,,,,,,,,,
9380010,-122,-31,996,-188,18545,-669,-48,238,-303,,,,0x058,,,,,,,,,,,,,,,,,,
9401155,-122,-31,996,-188,18545,-669,-60,228,-315,,,,0x020,,,,,,,,,,,,,,,,,,
9458794,-148,-4,1001,-1080,19215,1001,-60,228,-315,,,,0x058,,,,,,,,,,,,,,,,,,
9500438,-148,-4,1001,-1080,19215,1001,-72,222,-316,,,,0x020,,,,,,,,,,,,,,,,,,
9539618,-179,-3,992,-997,24596,-358,-72,222,-316,,,,0x018,,,,,,,,,,,,,,,,,,
9599721,-179,-3,992,-997,24596,-358,-90,237,-325,,,,0x060,,,,,,,,,,,,,,,,,,
9618399,-220,-27,1037,-4869,26341,-2485,-90,237,-325,,,,0x018,,,,,,,,,,,,,,,,,,
9696959,-259,-29,970,-3281,31473,-2231,-112,240,-318,,,,0x078,,,,,,,,,,,,,,,,,,
9777781,-290,-38,983,-6925,31985,-2423,-112,240,-318,,,,0x058,,,,,,,,,,,,,,,,,,
9796874,-290,-38,983,-6925,31985,-2423,-132,243,-339,,,,0x020,,,,,,,,,,,,,,,,,,
9856565,-336,-46,971,-2178,38521,-2266,-132,243,-339,,,,0x058,,,,,,,,,,,,,,,,,,
9896162,-336,-46,971,-2178,38521,-2266,-166,234,-337,,,,0x020,,,,,,,,,,,,,,,,,,
9935340,-336,-46,971,-1588,45307,-984,-166,234,-337,,,,0x010,,,,,,,,,,,,,,,,,,
9937716,-385,-77,936,-1588,45307,-984,-166,234,-337,,,,0x008,,,,,,,,,,,,,,,,,,
9995458,-385,-77,936,-1588,45307,-984,-190,231,-339,,,,0x060,,,,,,,,,,,,,,,,,,
10016185,-451,-23,896,2677,44616,4812,-190,231,-339,,,,0x018,,,,,,,,,,,,,,,,,,
10092690,-451,-23,896,2677,44616,4812,-211,232,-336,,,,0x060,,,,,,,,,,,,,,,,,,
10094965,-497,-48,867,-4843,43295,2476,-211,232,-336,,,,0x018,,,,,,,,,,,,,,,,,,
10175575,-550,-49,871,-4856,46803,940,-211,232,-336,,,,0x058,,,,,,,,,,,,,,,,,,
10192617,-550,-49,871,-4856,46803,940,-253,240,-342,,,,0x020,,,,,,,,,,,,,,,,,,
10254349,-621,-15,765,-2436,54648,175,-253,240,-342,,,,0x058,,,,,,,,,,,,,,,,,,
10291898,-621,-15,765,-2436,54648,175,-277,246,-333,,,,0x020,,,,,,,,,,,,,,,,,,
10333125,-669,-81,756,-8684,43780,-3920,-277,246,-333,,,,0x018,,,,,,,,,,,,,,,,,,
10389129,-669,-81,756,-8684,43780,-3920,-301,255,-333,,,,0x060,,,,,,,,,,,,,,,,,,
10413958,-704,-88,678,-7245,45530,192,-301,255,-333,,,,0x018,,,,,,,,,,,,,,,,,,
10488415,-704,-88,678,-7245,45530,192,-328,256,-324,,,,0x060,,,,,,,,,,,,,,,,,,
10492742,-746,-83,719,-1168,35857,3928,-328,256,-324,,,,0x018,,,,,,,,,,,,,,,,,,
10573346,-785,-60,618,-5919,48492,520,-328,256,-324,,,,0x058,,,,,,,,,,,,,,,,,,
10588342,-785,-60,618,-5919,48492,520,-351,253,-316,,,,0x020,,,,,,,,,,,,,,,,,,
10652121,-823,-57,588,1968,40993,1929,-351,253,-316,,,,0x018,,,,,,,,,,,,,,,,,,
10687624,-823,-57,588,1968,40993,1929,-376,265,-301,,,,0x060,,,,,,,,,,,,,,,,,,
10730906,-850,-89,531,-1133,39116,870,-376,265,-301,,,,0x018,,,,,,,,,,,,,,,,,,
10784864,-850,-89,531,-1133,39116,870,-405,259,-288,,,,0x060,,,,,,,,,,,,,,,,,,
10811743,-864,-90,442,-2660,43067,1990,-405,259,-288,,,,0x018,,,,,,,,,,,,,,,,,,
10884149,-864,-90,442,-2660,43067,1990,-417,256,-279,,,,0x060,,,,,,,,,,,,,,,,,,
10890525,-896,-66,455,-2493,26718,4427,-417,256,-279,,,,0x018,,,,,,,,,,,,,,,,,,
10969077,-926,-49,432,196,18869,4873,-417,256,-279,,,,0x058,,,,,,,,,,,,,,,,,,
10984071,-926,-49,432,196,18869,4873,-423,261,-277,,,,0x020,,,,,,,,,,,,,,,,,,
11049905,-921,-64,380,-3342,16528,700,-423,261,-277,,,,0x018,,,,,,,,,,,,,,,,,,
11081311,-921,-64,380,-3342,16528,700,-424,261,-271,,,,0x060,,,,,,,,,,,,,,,,,,
11128690,-934,-69,376,-4445,16975,-1894,-424,261,-271,,,,0x018,,,,,,,,,,,,,,,,,,
11180595,-934,-69,376,-4445,16975,-1894,-447,268,-265,,,,0x060,,,,,,,,,,,,,,,,,,
11207471,-940,-73,371,-1820,22120,-3692,-447,268,-265,,,,0x018,,,,,,,,,,,,,,,,,,
11279876,-940,-73,371,-1820,22120,-3692,-456,259,-255,,,,0x060,,,,,,,,,,,,,,,,,,
11288304,-950,-89,317,1273,20160,-1400,-456,259,-255,,,,0x018,,,,,,,,,,,,,,,,,,
11366855,-949,-72,333,3211,9493,2126,-456,259,-255,,,,0x018,,,,,,,,,,,,,,,,,,
11379807,-949,-72,333,3211,9493,2126,-454,258,-247,,,,0x060,,,,,,,,,,,,,,,,,,
11447686,-953,-65,282,4983,10565,3237,-454,258,-247,,,,0x018,,,,,,,,,,,,,,,,,,
11477037,-953,-65,282,4983,10565,3237,-457,259,-261,,,,0x060,,,,,,,,,,,,,,,,,,
11526467,-961,-73,282,1513,6129,813,-457,259,-261,,,,0x018,,,,,,,,,,,,,,,,,,
11576324,-961,-73,282,1513,6129,813,-453,250,-238,,,,0x060,,,,,,,,,,,,,,,,,,
11605256,-963,-56,297,2104,1977,1863,-453,250,-238,,,,0x018,,,,,,,,,,,,,,,,,,
11675607,-963,-56,297,2104,1977,1863,-466,253,-252,,,,0x060,,,,,,,,,,,,,,,,,,
11686085,-949,-68,298,1470,-949,1001,-466,253,-252,,,,0x018,,,,,,,,,,,,,,,,,,
11764629,-963,-48,288,2428,-560,3425,-466,253,-252,,,,0x018,,,,,,,,,,,,,,,,,,
11773471,-963,-48,288,2428,-560,3425,-466,244,-250,,,,0x020,,,,,,,,,,,,,,,,,,
11843414,-965,-69,295,-336,-1601,743,-466,244,-250,,,,0x058,,,,,,,,,,,,,,,,,,
11872761,-965,-69,295,-336,-1601,743,-451,249,-255,,,,0x020,,,,,,,,,,,,,,,,,,
11924253,-964,-37,296,2813,-1369,3740,-451,249,-255,,,,0x058,,,,,,,,,,,,,,,,,,
11972051,-964,-37,296,2813,-1369,3740,-450,244,-252,,,,0x020,,,,,,,,,,,,,,,,,,
12003034,-961,-38,289,4952,-4598,2323,-450,244,-252,,,,0x058,,,,,,,,,,,,,,,,,,
12071329,-961,-38,289,4952,-4598,2323,-453,246,-258,,,,0x020,,,,,,,,,,,,,,,,,,
12081806,-956,-45,316,3408,-11392,-958,-453,246,-258,,,,0x058,,,,,,,,,,,,,,,,,,
12162409,-947,-53,347,577,-16406,-1903,-453,246,-258,,,,0x018,,,,,,,,,,,,,,,,,,
12169202,-947,-53,347,577,-16406,-1903,-444,246,-268,,,,0x020,,,,,,,,,,,,,,,,,,
12241189,-930,-66,371,-2428,-18449,-1185,-444,246,-268,,,,0x058,,,,,,,,,,,,,,,,,,
12268483,-930,-66,371,-2428,-18449,-1185,-435,240,-265,,,,0x020,,,,,,,,,,,,,,,,,,
12322021,-920,-50,348,-704,-14686,1168,-435,240,-265,,,,0x058,,,,,,,,,,,,,,,,,,
12367768,-920,-50,348,-704,-14686,1168,-420,246,-276,,,,0x020,,,,,,,,,,,,,,,,,,
12400807,-895,-43,348,4554,-21656,3031,-420,246,-276,,,,0x058,,,,,,,,,,,,,,,,,,
12467058,-895,-43,348,4554,-21656,3031,-403,237,-297,,,,0x020,,,,,,,,,,,,,,,,,,
12479585,-908,-25,537,9743,-38758,3696,-403,237,-297,,,,0x018,,,,,,,,,,,,,,,,,,
12560187,-881,-44,467,4681,-25685,660,-403,237,-297,,,,0x058,,,,,,,,,,,,,,,,,,
12564930,-881,-44,467,4681,-25685,660,-396,238,-294,,,,0x020,,,,,,,,,,,,,,,,,,
12638967,-871,-21,525,5608,-28494,3898,-396,238,-294,,,,0x058,,,,,,,,,,,,,,,,,,
12664213,-871,-21,525,5608,-28494,3898,-370,219,-303,,,,0x020,,,,,,,,,,,,,,,,,,
12717751,-857,0,551,5578,-28923,5057,-370,219,-303,,,,0x058,,,,,,,,,,,,,,,,,,
12763500,-857,0,551,5578,-28923,5057,-348,234,-309,,,,0x020,,,,,,,,,,,,,,,,,,
12798586,-824,-14,634,315,-32668,581,-348,234,-309,,,,0x058,,,,,,,,,,,,,,,,,,
12862779,-824,-14,634,315,-32668,581,-322,228,-321,,,,0x020,,,,,,,,,,,,,,,,,,
12877357,-794,-10,632,-1872,-27466,-1185,-322,228,-321,,,,0x018,,,,,,,,,,,,,,,,,,
12955916,-794,-10,632,-494,-27514,-1299,-322,228,-321,,,,0x050,,,,,,,,,,,,,,,,,,
12958291,-752,-23,607,-494,-27514,-1299,-322,228,-321,,,,0x008,,,,,,,,,,,,,,,,,,
12960667,-752,-23,607,-494,-27514,-1299,-322,228,-321,,,,0x020,,,,,,,,,,,,,,,,,,
13036761,-717,-18,643,-2502,-41829,-1435,-322,228,-321,,,,0x058,,,,,,,,,,,,,,,,,,
13059957,-717,-18,643,-2502,-41829,-1435,-280,225,-334,,,,0x020,,,,,,,,,,,,,,,,,,
13115545,-677,-52,824,-800,-54906,2738,-280,225,-334,,,,0x058,,,,,,,,,,,,,,,,,,
13159239,-677,-52,824,-800,-54906,2738,-264,234,-337,,,,0x020,,,,,,,,,,,,,,,,,,
13196368,-639,-22,754,3023,-29745,3211,-264,234,-337,,,,0x018,,,,,,,,,,,,,,,,,,
13258521,-639,-22,754,3023,-29745,3211,-241,226,-339,,,,0x060,,,,,,,,,,,,,,,,,,
13275149,-621,-8,783,4536,-27886,5110,-241,226,-339,,,,0x018,,,,,,,,,,,,,,,,,,
13353709,-587,12,833,7161,-31018,3911,-241,226,-339,,,,0x058,,,,,,,,,,,,,,,,,,
13356402,-587,12,833,7161,-31018,3911,-211,222,-336,,,,0x020,,,,,,,,,,,,,,,,,,
13434539,-541,16,815,14363,-36522,2458,-211,222,-336,,,,0x058,,,,,,,,,,,,,,,,,,
13455683,-541,16,815,14363,-36522,2458,-195,228,-331,,,,0x020,,,,,,,,,,,,,,,,,,
13513322,-498,57,881,7293,-47801,4987,-195,228,-331,,,,0x058,,,,,,,,,,,,,,,,,,
13554968,-498,57,881,7293,-47801,4987,-160,219,-339,,,,0x020,,,,,,,,,,,,,,,,,,
13594150,-437,49,971,1155,-47425,-975,-160,219,-339,,,,0x018,,,,,,,,,,,,,,,,,,
13654258,-437,49,971,1155,-47425,-975,-141,213,-328,,,,0x060,,,,,,,,,,,,,,,,,,
13672934,-376,37,969,3259,-41181,-2432,-141,213,-328,,,,0x018,,,,,,,,,,,,,,,,,,
13751488,-343,40,940,6973,-24784,-6164,-130,205,-331,,,,0x078,,,,,,,,,,,,,,,,,,
13832317,-329,39,919,5503,-18108,-6921,-130,205,-331,,,,0x058,,,,,,,,,,,,,,,,,,
13851413,-329,39,919,5503,-18108,-6921,-114,210,-322,,,,0x020,,,,,,,,,,,,,,,,,,
13911097,-289,12,969,-6260,-25020,-5871,-114,210,-322,,,,0x058,,,,,,,,,,,,,,,,,,
13950698,-289,12,969,-6260,-25020,-5871,-100,210,-328,,,,0x020,,,,,,,,,,,,,,,,,,
13989875,-265,0,963,-4659,-22767,-4003,-100,210,-328,,,,0x018,,,,,,,,,,,,,,,,,,
14049979,-265,0,963,-4659,-22767,-4003,-91,222,-324,,,,0x060,,,,,,,,,,,,,,,,,,
14070707,-224,10,978,-5744,-35126,-774,-91,222,-324,,,,0x018,,,,,,,,,,,,,,,,,,
14147216,-224,10,978,-5744,-35126,-774,-69,229,-304,,,,0x060,,,,,,,,,,,,,,,,,,
14149491,-151,6,1036,-15268,-44340,468,-69,229,-304,,,,0x018,,,,,,,,,,,,,,,,,,
14230096,-104,-21,996,-9283,-32711,-660,-69,229,-304,,,,0x058,,,,,,,,,,,,,,,,,,
14247140,-104,-21,996,-9283,-32711,-660,-48,238,-307,,,,0x020,,,,,,,,,,,,,,,,,,
14308867,-79,-38,1051,1150,-26079,-1933,-48,238,-307,,,,0x018,,,,,,,,,,,,,,,,,,
14346421,-79,-38,1051,1150,-26079,-1933,-42,228,-298,,,,0x060,,,,,,,,,,,,,,,,,,
14387652,-58,-6,1039,5687,-17539,1330,-42,228,-298,,,,0x018,,,,,,,,,,,,,,,,,,
14443660,-58,-6,1039,5687,-17539,1330,-36,226,-300,,,,0x060,,,,,,,,,,,,,,,,,,
14468488,-43,5,979,9100,-10858,485,-36,226,-300,,,,0x018,,,,,,,,,,,,,,,,,,
14542940,-43,5,979,9100,-10858,485,-27,229,-298,,,,0x060,,,,,,,,,,,,,,,,,,
14547266,-26,2,1033,6230,-13265,-1828,-27,229,-298,,,,0x018,,,,,,,,,,,,,,,,,,
14625826,-7,-2,1031,3325,-11060,-621,-27,229,-298,,,,0x058,,,,,,,,,,,,,,,,,,
14642870,-7,-2,1031,3325,-11060,-621,-22,223,-294,,,,0x020,,,,,,,,,,,,,,,,,,
14706654,2,9,1031,2016,-8898,188,-22,223,-294,,,,0x018,,,,,,,,,,,,,,,,,,
14740110,2,9,1031,2016,-8898,188,-13,220,-295,,,,0x060,,,,,,,,,,,,,,,,,,
14785437,7,11,1022,2839,-3250,293,-13,220,-295,,,,0x018,,,,,,,,,,,,,,,,,,
14839394,7,11,1022,2839,-3250,293,-16,226,-291,,,,0x060,,,,,,,,,,,,,,,,,,
14864220,2,27,1013,5368,-656,1198,-16,226,-291,,,,0x018,,,,,,,,,,,,,,,,,,
14938677,2,27,1013,5368,-656,1198,-18,223,-297,,,,0x060,,,,,,,,,,,,,,,,,,
14945054,8,17,1012,1666,-1435,166,-18,223,-297,,,,0x018,,,,,,,,,,,,,,,,,,
15023606,12,22,1020,258,-2143,389,-18,223,-297,,,,0x018,,,,,,,,,,,,,,,,,,
15038609,12,22,1020,258,-2143,389,-15,223,-291,,,,0x060,,,,,,,,,,,,,,,,,,
15102386,12,22,1020,183,-743,-293,-15,223,-291,,,,0x010,,,,,,,,,,,,,,,,,,
15104761,15,17,1009,183,-743,-293,-15,223,-291,,,,0x008,,,,,,,,,,,,,,,,,,
15135849,15,17,1009,183,-743,-293,-10,231,-285,,,,0x060,,,,,,,,,,,,,,,,,,
15183227,13,26,1020,2086,-538,188,-10,231,-285,,,,0x018,,,,,,,,,,,,,,,,,,
15235130,13,26,1020,2086,-538,188,-16,222,-286,,,,0x060,,,,,,,,,,,,,,,,,,
15262011,15,24,1017,1548,179,319,-16,222,-286,,,,0x018,,,,,,,,,,,,,,,,,,
15334421,15,24,1017,1548,179,319,-27,225,-285,,,,0x060,,,,,,,,,,,,,,,,,,
15340799,15,24,1017,962,1373,-52,-27,225,-285,,,,0x010,,,,,,,,,,,,,,,,,,
15343174,14,32,1023,962,1373,-52,-27,225,-285,,,,0x008,,,,,,,,,,,,,,,,,,
15421411,1,27,1014,625,2646,-1181,-27,225,-285,,,,0x018,,,,,,,,,,,,,,,,,,
15432305,1,27,1014,625,2646,-1181,-6,222,-291,,,,0x060,,,,,,,,,,,,,,,,,,
15500184,6,33,1006,420,608,-490,-6,222,-291,,,,0x018,,,,,,,,,,,,,,,,,,
15531579,6,33,1006,420,608,-490,-15,207,-291,,,,0x020,,,,,,,,,,,,,,,,,,
15581018,15,22,1029,-39,-520,-612,-15,207,-291,,,,0x058,,,,,,,,,,,,,,,,,,
15630865,15,22,1029,-39,-520,-612,-19,219,-301,,,,0x020,,,,,,,,,,,,,,,,,,
15659803,-1,36,1004,1478,3871,280,-19,219,-301,,,,0x058,,,,,,,,,,,,,,,,,,
15730154,-1,36,1004,1478,3871,280,-15,216,-291,,,,0x020,,,,,,,,,,,,,,,,,,
15738587,-1,28,1030,1360,818,113,-15,216,-291,,,,0x058,,,,,,,,,,,,,,,,,,
15819182,-2,27,1019,682,1701,126,-15,216,-291,,,,0x018,,,,,,,,,,,,,,,,,,
15828025,-2,27,1019,682,1701,126,-24,228,-291,,,,0x020,,,,,,,,,,,,,,,,,,
15897964,-2,37,1003,800,1343,332,-24,228,-291,,,,0x058,,,,,,,,,,,,,,,,,,
15927310,-2,37,1003,800,1343,332,-28,217,-295,,,,0x020,,,,,,,,,,,,,,,,,,
15976748,0,33,1013,1417,-555,157,-28,217,-295,,,,0x058,,,,,,,,,,,,,,,,,,
16026597,0,33,1013,1417,-555,157,-16,219,-285,,,,0x020,,,,,,,,,,,,,,,,,,
16057584,-2,33,1022,1693,503,-538,-16,219,-285,,,,0x058,,,,,,,,,,,,,,,,,,
16125878,-2,33,1022,1693,503,-538,-24,216,-286,,,,0x020,,,,,,,,,,,,,,,,,,
16136354,0,37,1027,258,315,-201,-24,216,-286,,,,0x018,,,,,,,,,,,,,,,,,,
16216965,-1,30,1006,459,1373,-113,-24,216,-286,,,,0x058,,,,,,,,,,,,,,,,,,
16223759,-1,30,1006,459,1373,-113,-22,217,-292,,,,0x020,,,,,,,,,,,,,,,,,,
16295751,-6,32,1018,166,-511,844,-22,217,-292,,,,0x058,,,,,,,,,,,,,,,,,,
16323047,-6,32,1018,166,-511,844,-18,211,-294,,,,0x020,,,,,,,,,,,,,,,,,,
16374531,-7,37,1026,411,-962,1290,-18,211,-294,,,,0x058,,,,,,,,,,,,,,,,,,
16422325,-7,37,1026,411,-962,1290,-18,217,-291,,,,0x020,,,,,,,,,,,,,,,,,,
16455363,-2,37,1000,-8,1281,-78,-18,217,-291,,,,0x058,,,,,,,,,,,,,,,,,,
16521614,-2,37,1000,-8,1281,-78,-21,217,-294,,,,0x020,,,,,,,,,,,,,,,,,,
16534140,-7,33,1018,953,-691,-468,-21,217,-294,,,,0x018,,,,,,,,,,,,,,,,,,
16612699,-3,31,1012,896,-196,-4,-21,217,-294,,,,0x058,,,,,,,,,,,,,,,,,,
16619491,-3,31,1012,896,-196,-4,-22,219,-294,,,,0x020,,,,,,,,,,,,,,,,,,
16693527,-5,34,1018,1404,603,-323,-22,219,-294,,,,0x058,,,,,,,,,,,,,,,,,,
16718771,-5,34,1018,1404,603,-323,-18,216,-285,,,,0x020,,,,,,,,,,,,,,,,,,
16772310,-8,45,1008,546,332,-306,-18,216,-285,,,,0x058,,,,,,,,,,,,,,,,,,
16818058,-8,45,1008,546,332,-306,-22,214,-303,,,,0x020,,,,,,,,,,,,,,,,,,
16851084,-8,45,1008,3093,70,673,-22,214,-303,,,,0x010,,,,,,,,,,,,,,,,,,
16853459,0,26,1026,3093,70,673,-22,214,-303,,,,0x048,,,,,,,,,,,,,,,,,,
16917341,0,26,1026,3093,70,673,-27,208,-288,,,,0x020,,,,,,,,,,,,,,,,,,
16931917,-24,41,1034,17815,8281,4471,-27,208,-288,,,,0x018,,,,,,,,,,,,,,,,,,
17010471,-27,131,982,20413,7538,2957,-27,208,-288,,,,0x058,,,,,,,,,,,,,,,,,,
17015215,-27,131,982,20413,7538,2957,-30,193,-279,,,,0x020,,,,,,,,,,,,,,,,,,
17091307,-21,114,1006,26998,573,-7796,-30,193,-279,,,,0x058,,,,,,,,,,,,,,,,,,
17114503,-21,114,1006,26998,573,-7796,-37,166,-285,,,,0x020,,,,,,,,,,,,,,,,,,
17170088,-33,229,988,49997,3049,-7262,-37,166,-285,,,,0x058,,,,,,,,,,,,,,,,,,
17213782,-33,229,988,49997,3049,-7262,-42,135,-261,,,,0x020,,,,,,,,,,,,,,,,,,
17248862,-42,257,965,70949,2388,-10723,-42,135,-261,,,,0x018,,,,,,,,,,,,,,,,,,
17313069,-42,257,965,70949,2388,-10723,-25,106,-247,,,,0x060,,,,,,,,,,,,,,,,,,
17329697,-45,363,939,57277,-1382,-8588,-25,106,-247,,,,0x018,,,,,,,,,,,,,,,,,,
17408254,-39,401,922,51778,-266,-7936,-25,106,-247,,,,0x058,,,,,,,,,,,,,,,,,,
17410947,-39,401,922,51778,-266,-7936,-33,90,-235,,,,0x020,,,,,,,,,,,,,,,,,,
17489084,-49,496,920,34868,-210,-4064,-33,90,-235,,,,0x058,,,,,,,,,,,,,,,,,,
17510229,-49,496,920,34868,-210,-4064,-42,72,-225,,,,0x020,,,,,,,,,,,,,,,,,,
17567870,-53,495,892,35284,3714,-6518,-42,72,-225,,,,0x058,,,,,,,,,,,,,,,,,,
17609517,-53,495,892,35284,3714,-6518,-37,57,-214,,,,0x020,,,,,,,,,,,,,,,,,,
17646648,-78,557,798,38460,9003,-5398,-37,57,-214,,,,0x018,,,,,,,,,,,,,,,,,,
17708804,-78,557,798,38460,9003,-5398,-42,33,-199,,,,0x060,,,,,,,,,,,,,,,,,,
17727481,-71,583,819,40731,-4143,-8001,-42,33,-199,,,,0x018,,,,,,,,,,,,,,,,,,
17806033,-70,630,790,47136,-3508,-5591,-45,16,-178,,,,0x078,,,,,,,,,,,,,,,,,,
17886863,-76,676,763,37353,-875,-4213,-45,16,-178,,,,0x058,,,,,,,,,,,,,,,,,,
17905960,-76,676,763,37353,-875,-4213,-49,1,-163,,,,0x020,,,,,,,,,,,,,,,,,,
17965638,-90,707,681,30918,3850,-2524,-49,1,-163,,,,0x018,,,,,,,,,,,,,,,,,,
18005240,-90,707,681,30918,3850,-2524,-46,1,-148,,,,0x060,,,,,,,,,,,,,,,,,,
18044419,-95,752,658,39659,1570,-2730,-46,1,-148,,,,0x018,,,,,,,,,,,,,,,,,,
18104524,-95,752,658,39659,1570,-2730,-51,-12,-115,,,,0x060,,,,,,,,,,,,,,,,,,
18125253,-94,784,652,36701,1929,-2861,-51,-12,-115,,,,0x018,,,,,,,,,,,,,,,,,,
18201762,-94,784,652,36701,1929,-2861,-54,-15,-111,,,,0x060,,,,,,,,,,,,,,,,,,
18204037,-98,814,587,36802,9174,-1767,-54,-15,-111,,,,0x018,,,,,,,,,,,,,,,,,,
18282594,-112,855,521,45018,9913,-2660,-54,-15,-111,,,,0x058,,,,,,,,,,,,,,,,,,
18301687,-112,855,521,45018,9913,-2660,-51,-12,-81,,,,0x020,,,,,,,,,,,,,,,,,,
18363418,-120,842,498,56739,1802,-7236,-51,-12,-81,,,,0x018,,,,,,,,,,,,,,,,,,
18400970,-120,842,498,56739,1802,-7236,-55,-25,-61,,,,0x060,,,,,,,,,,,,,,,,,,
18442201,-120,910,425,35205,-48,-3237,-55,-25,-61,,,,0x018,,,,,,,,,,,,,,,,,,
18500258,-120,910,425,35205,-48,-3237,-54,-36,-42,,,,0x060,,,,,,,,,,,,,,,,,,
18520985,-120,910,425,29036,1159,118,-54,-36,-42,,,,0x010,,,,,,,,,,,,,,,,,,
18523359,-120,892,378,29036,1159,118,-54,-36,-42,,,,0x008,,,,,,,,,,,,,,,,,,
18597498,-120,892,378,29036,1159,118,-54,-36,-28,,,,0x060,,,,,,,,,,,,,,,,,,
18601825,-125,907,380,24504,1023,8973,-54,-36,-28,,,,0x018,,,,,,,,,,,,,,,,,,
18680370,-102,949,334,19818,3220,13623,-54,-36,-28,,,,0x058,,,,,,,,,,,,,,,,,,
18697415,-102,949,334,19818,3220,13623,-34,-30,-16,,,,0x020,,,,,,,,,,,,,,,,,,
18761198,-79,958,308,30174,1942,11825,-34,-30,-16,,,,0x018,,,,,,,,,,,,,,,,,,
18796704,-79,958,308,30174,1942,11825,-36,-33,1,,,,0x060,,,,,,,,,,,,,,,,,,
18839981,-81,970,242,37104,4357,4305,-36,-33,1,,,,0x018,,,,,,,,,,,,,,,,,,
18895983,-81,970,242,37104,4357,4305,-46,-33,19,,,,0x060,,,,,,,,,,,,,,,,,,
18918762,-81,936,196,34860,3316,3071,-46,-33,19,,,,0x018,,,,,,,,,,,,,,,,,,
18993222,-81,936,196,34860,3316,3071,-37,-33,34,,,,0x060,,,,,,,,,,,,,,,,,,
18999600,-68,987,176,16581,-831,7293,-37,-33,34,,,,0x018,,,,,,,,,,,,,,,,,,
19078154,-56,986,143,16270,-6881,8198,-37,-33,34,,,,0x018,,,,,,,,,,,,,,,,,,
19093158,-56,986,143,16270,-6881,8198,-25,-34,39,,,,0x060,,,,,,,,,,,,,,,,,,
19158986,-42,1009,181,5000,-11637,7503,-25,-34,39,,,,0x018,,,,,,,,,,,,,,,,,,
19192439,-42,1009,181,5000,-11637,7503,-40,-21,42,,,,0x060,,,,,,,,,,,,,,,,,,
19237768,-42,988,149,14555,-2283,1579,-40,-21,42,,,,0x018,,,,,,,,,,,,,,,,,,
19291724,-42,988,149,14555,-2283,1579,-34,-22,58,,,,0x060,,,,,,,,,,,,,,,,,,
19316555,-47,977,131,14730,319,691,-34,-22,58,,,,0x018,,,,,,,,,,,,,,,,,,
19388957,-47,977,131,14730,319,691,-40,-19,64,,,,0x020,,,,,,,,,,,,,,,,,,
19397394,-32,988,88,7393,363,1216,-40,-19,64,,,,0x058,,,,,,,,,,,,,,,,,,
19475938,-42,993,129,2170,-870,1028,-40,-19,64,,,,0x018,,,,,,,,,,,,,,,,,,
19488882,-42,993,129,2170,-870,1028,-28,-22,48,,,,0x020,,,,,,,,,,,,,,,,,,
19556768,-39,984,111,-525,1596,-437,-28,-22,48,,,,0x058,,,,,,,,,,,,,,,,,,
19588165,-39,984,111,-525,1596,-437,-28,-27,61,,,,0x020,,,,,,,,,,,,,,,,,,
19635557,-38,988,80,7459,-293,721,-28,-27,61,,,,0x058,,,,,,,,,,,,,,,,,,
19687454,-38,988,80,7459,-293,721,-37,-21,55,,,,0x020,,,,,,,,,,,,,,,,,,
19714341,-38,997,76,2773,-581,739,-37,-21,55,,,,0x058,,,,,,,,,,,,,,,,,,
19784686,-38,997,76,2773,-581,739,-43,-19,63,,,,0x020,,,,,,,,,,,,,,,,,,
19795164,-41,995,92,564,-2598,319,-43,-19,63,,,,0x018,,,,,,,,,,,,,,,,,,
19873718,-41,985,126,-7936,-721,293,-43,-19,63,,,,0x058,,,,,,,,,,,,,,,,,,
19884613,-41,985,126,-7936,-721,293,-30,-19,46,,,,0x020,,,,,,,,,,,,,,,,,,
19952504,-41,985,126,-25781,2069,-800,-30,-19,46,,,,0x050,,,,,,,,,,,,,,,,,,
19954879,-37,985,134,-25781,2069,-800,-30,-19,46,,,,0x008,,,,,,,,,,,,,,,,,,
19983909,-37,985,134,-25781,2069,-800,-36,-25,25,,,,0x020,,,,,,,,,,,,,,,,,,
20033347,-26,992,114,-32921,-4904,-2821,-36,-25,25,,,,0x058,,,,,,,,,,,,,,,,,,
20083196,-26,992,114,-32921,-4904,-2821,-31,-19,24,,,,0x020,,,,,,,,,,,,,,,,,,
20112129,-46,960,308,-30773,-17018,-997,-31,-19,24,,,,0x058,,,,,,,,,,,,,,,,,,
20180423,-46,960,308,-30773,-17018,-997,-33,-28,-6,,,,0x020,,,,,,,,,,,,,,,,,,
20192951,-36,947,275,-38246,5166,1841,-33,-28,-6,,,,0x018,,,,,,,,,,,,,,,,,,
20271511,-33,955,286,-41225,4309,1439,-33,-28,-6,,,,0x058,,,,,,,,,,,,,,,,,,
20280354,-33,955,286,-41225,4309,1439,-40,-22,-22,,,,0x020,,,,,,,,,,,,,,,,,,
20350296,-37,964,351,-20168,-2835,2677,-40,-22,-22,,,,0x058,,,,,,,,,,,,,,,,,,
20379642,-37,964,351,-20168,-2835,2677,-42,-22,-19,,,,0x020,,,,,,,,,,,,,,,,,,
20431129,-45,911,396,-5009,245,293,-42,-22,-19,,,,0x058,,,,,,,,,,,,,,,,,,
20476872,-45,911,396,-5009,245,293,-36,-28,-31,,,,0x020,,,,,,,,,,,,,,,,,,
20509909,-38,910,373,-9051,3714,866,-36,-28,-31,,,,0x058,,,,,,,,,,,,,,,,,,
20576159,-38,910,373,-9051,3714,866,-31,-19,-46,,,,0x020,,,,,,,,,,,,,,,,,,
20588687,-38,910,373,-11431,1933,791,-31,-19,-46,,,,0x010,,,,,,,,,,,,,,,,,,
20591062,-35,926,375,-11431,1933,791,-31,-19,-46,,,,0x008,,,,,,,,,,,,,,,,,,
20669304,-36,922,404,-12740,848,713,-31,-19,-46,,,,0x058,,,,,,,,,,,,,,,,,,
20676098,-36,922,404,-12740,848,713,-24,-21,-52,,,,0x020,,,,,,,,,,,,,,,,,,
20748084,-36,897,421,-16191,-490,-590,-24,-21,-52,,,,0x058,,,,,,,,,,,,,,,,,,
20775378,-36,897,421,-16191,-490,-590,-40,-19,-49,,,,0x020,,,,,,,,,,,,,,,,,,
20828919,-39,891,453,-16240,-2506,-319,-40,-19,-49,,,,0x058,,,,,,,,,,,,,,,,,,
20872618,-39,891,453,-16240,-2506,-319,-33,-22,-73,,,,0x020,,,,,,,,,,,,,,,,,,
20907699,-28,901,473,-26040,-148,993,-33,-22,-73,,,,0x018,,,,,,,,,,,,,,,,,,
20971907,-28,901,473,-26040,-148,993,-45,-18,-75,,,,0x060,,,,,,,,,,,,,,,,,,
20986484,-40,853,515,-19145,3246,761,-45,-18,-75,,,,0x018,,,,,,,,,,,,,,,,,,
21067086,-40,824,553,-21520,2821,1592,-45,-18,-75,,,,0x058,,,,,,,,,,,,,,,,,,
21071829,-40,824,553,-21520,2821,1592,-40,-12,-97,,,,0x020,,,,,,,,,,,,,,,,,,
21145868,-35,878,508,-23594,5534,3819,-40,-12,-97,,,,0x058,,,,,,,,,,,,,,,,,,
21171115,-35,878,508,-23594,5534,3819,-30,1,-103,,,,0x020,,,,,,,,,,,,,,,,,,
21226709,-41,878,537,-21853,2668,481,-30,1,-103,,,,0x058,,,,,,,,,,,,,,,,,,
21268357,-41,878,537,-21853,2668,481,-30,-9,-111,,,,0x020,,,,,,,,,,,,,,,,,,
21305485,-41,713,670,-18033,-7070,-5731,-30,-9,-111,,,,0x018,,,,,,,,,,,,,,,,,,
21367637,-41,713,670,-18033,-7070,-5731,-36,3,-130,,,,0x060,,,,,,,,,,,,,,,,,,
21384266,-32,812,590,-33534,1470,3758,-36,3,-130,,,,0x018,,,,,,,,,,,,,,,,,,
21464871,-39,747,701,-24574,2572,3276,-36,3,-130,,,,0x058,,,,,,,,,,,,,,,,,,
21467565,-39,747,701,-24574,2572,3276,-34,12,-147,,,,0x020,,,,,,,,,,,,,,,,,,
21543662,-48,691,721,-27982,9765,4738,-34,12,-147,,,,0x058,,,,,,,,,,,,,,,,,,
21564807,-48,691,721,-27982,9765,4738,-31,19,-162,,,,0x020,,,,,,,,,,,,,,,,,,
21622437,-38,755,650,-29483,7052,2957,-31,19,-162,,,,0x018,,,,,,,,,,,,,,,,,,
21664090,-38,755,650,-29483,7052,2957,-30,16,-181,,,,0x060,,,,,,,,,,,,,,,,,,
21703269,-39,697,752,-20247,-3473,-140,-30,16,-181,,,,0x018,,,,,,,,,,,,,,,,,,
21763375,-39,697,752,-20247,-3473,-140,-30,27,-180,,,,0x060,,,,,,,,,,,,,,,,,,
21782055,-45,615,797,-21966,-546,-1163,-30,27,-180,,,,0x018,,,,,,,,,,,,,,,,,,
21860614,-45,615,797,-50448,9821,8308,-30,27,-180,,,,0x050,,,,,,,,,,,,,,,,,,
21862989,-43,615,810,-50448,9821,8308,-34,64,-207,,,,0x028,,,,,,,,,,,,,,,,,,
21941445,-53,538,848,-62785,14651,12324,-34,64,-207,,,,0x058,,,,,,,,,,,,,,,,,,
21960538,-53,538,848,-62785,14651,12324,-40,93,-237,,,,0x020,,,,,,,,,,,,,,,,,,
22020218,-63,522,858,-58931,8535,8999,-40,93,-237,,,,0x018,,,,,,,,,,,,,,,,,,
22059822,-63,522,858,-58931,8535,8999,-34,103,-249,,,,0x060,,,,,,,,,,,,,,,,,,
22101052,-58,394,927,-37454,476,-140,-34,103,-249,,,,0x018,,,,,,,,,,,,,,,,,,
22159110,-58,394,927,-37454,476,-140,-30,121,-258,,,,0x060,,,,,,,,,,,,,,,,,,
22179837,-67,401,931,-36010,1391,1491,-30,121,-258,,,,0x018,,,,,,,,,,,,,,,,,,
22258394,-68,335,950,-19105,380,-2957,-46,123,-277,,,,0x078,,,,,,,,,,,,,,,,,,
22339224,-57,289,954,-32965,-3775,-437,-46,123,-277,,,,0x058,,,,,,,,,,,,,,,,,,
22356268,-57,289,954,-32965,-3775,-437,-27,154,-279,,,,0x020,,,,,,,,,,,,,,,,,,
22418004,-50,271,947,-46768,-14953,-1071,-27,154,-279,,,,0x018,,,,,,,,,,,,,,,,,,
22455560,-50,271,947,-46768,-14953,-1071,-24,171,-291,,,,0x060,,,,,,,,,,,,,,,,,,
22496788,-4,174,1044,-49393,-18550,-2598,-24,171,-291,,,,0x018,,,,,,,,,,,,,,,,,,
22554843,-4,174,1044,-49393,-18550,-2598,-31,193,-286,,,,0x060,,,,,,,,,,,,,,,,,,
22577621,-12,157,984,-20072,3517,2835,-31,193,-286,,,,0x018,,,,,,,,,,,,,,,,,,
22654127,-12,157,984,-20072,3517,2835,-24,195,-282,,,,0x060,,,,,,,,,,,,,,,,,,
22656402,-23,136,998,-12145,468,1347,-24,195,-282,,,,0x018,,,,,,,,,,,,,,,,,,
22737005,-20,112,1028,-16296,-2043,643,-24,195,-282,,,,0x018,,,,,,,,,,,,,,,,,,
22752008,-20,112,1028,-16296,-2043,643,-28,204,-291,,,,0x060,,,,,,,,,,,,,,,,,,
22815786,-15,94,1012,-15767,-1754,1286,-28,204,-291,,,,0x018,,,,,,,,,,,,,,,,,,
22851289,-15,94,1012,-15767,-1754,1286,-27,216,-283,,,,0x060,,,,,,,,,,,,,,,,,,
22894568,-6,70,1010,-16156,-2476,2331,-27,216,-283,,,,0x018,,,,,,,,,,,,,,,,,,
22950576,-6,70,1010,-16156,-2476,2331,-33,213,-291,,,,0x060,,,,,,,,,,,,,,,,,,
22975405,-12,52,1011,-11921,-726,2699,-33,213,-291,,,,0x018,,,,,,,,,,,,,,,,,,
23047811,-12,52,1011,-11921,-726,2699,-27,226,-282,,,,0x060,,,,,,,,,,,,,,,,,,
23054190,-13,27,1008,-8662,-1330,1916,-27,226,-282,,,,0x018,,,,,,,,,,,,,,,,,,
23132735,-9,39,1009,-12945,-2056,3198,-27,226,-282,,,,0x018,,,,,,,,,,,,,,,,,,
23147730,-9,39,1009,-12945,-2056,3198,-21,226,-285,,,,0x060,,,,,,,,,,,,,,,,,,
23213564,-4,13,1020,-6505,-2073,507,-21,226,-285,,,,0x018,,,,,,,,,,,,,,,,,,
23247011,-4,13,1020,-6505,-2073,507,-18,235,-291,,,,0x020,,,,,,,,,,,,,,,,,,
23292350,-1,7,1018,-5766,-1491,1045,-18,235,-291,,,,0x058,,,,,,,,,,,,,,,,,,
23344250,-1,7,1018,-5766,-1491,1045,-27,246,-282,,,,0x020,,,,,,,,,,,,,,,,,,
23371137,1,2,1019,-4445,-1150,428,-27,246,-282,,,,0x058,,,,,,,,,,,,,,,,,,
23443532,1,2,1019,-4445,-1150,428,-22,238,-292,,,,0x020,,,,,,,,,,,,,,,,,,
23451960,4,-5,1005,-4427,-1233,4,-22,238,-292,,,,0x058,,,,,,,,,,,,,,,,,,
23530510,9,-22,1031,-6383,-3373,-319,-22,238,-292,,,,0x018,,,,,,,,,,,,,,,,,,
23543453,9,-22,1031,-6383,-3373,-319,-19,252,-292,,,,0x020,,,,,,,,,,,,,,,,,,
23611340,9,-17,1022,-2625,-905,428,-19,252,-292,,,,0x058,,,,,,,,,,,,,,,,,,
23642735,9,-17,1022,-2625,-905,428,-19,249,-286,,,,0x020,,,,,,,,,,,,,,,,,,
23690121,8,-24,1007,-1168,113,389,-19,249,-286,,,,0x058,,,,,,,,,,,,,,,,,,
23739967,8,-24,1007,-1168,113,389,-22,244,-300,,,,0x020,,,,,,,,,,,,,,,,,,
23768906,8,-17,1019,-800,-787,420,-22,244,-300,,,,0x058,,,,,,,,,,,,,,,,,,
23839257,8,-17,1019,-800,-787,420,-19,238,-291,,,,0x020,,,,,,,,,,,,,,,,,,
23849733,11,-32,1019,91,280,275,-19,238,-291,,,,0x018,,,,,,,,,,,,,,,,,,
23928287,7,-19,1024,-30,240,883,-19,238,-291,,,,0x058,,,,,,,,,,,,,,,,,,
23939181,7,-19,1024,-30,240,883,-16,241,-289,,,,0x020,,,,,,,,,,,,,,,,,,
24007071,7,-19,1024,2034,1645,411,-16,241,-289,,,,0x050,,,,,,,,,,,,,,,,,,
24009446,4,-25,1011,2034,1645,411,-16,241,-289,,,,0x008,,,,,,,,,,,,,,,,,,
24036423,4,-25,1011,2034,1645,411,-16,244,-295,,,,0x020,,,,,,,,,,,,,,,,,,
24087914,2,-19,1011,3023,1413,656,-16,244,-295,,,,0x058,,,,,,,,,,,,,,,,,,
24135713,2,-19,1011,3023,1413,656,-16,240,-294,,,,0x020,,,,,,,,,,,,,,,,,,
24166698,3,-10,1039,2143,126,997,-16,240,-294,,,,0x058,,,,,,,,,,,,,,,,,,
24234999,3,-10,1039,2143,126,997,-24,246,-286,,,,0x020,,,,,,,,,,,,,,,,,,
24247526,1,-10,1008,2817,2209,805,-24,246,-286,,,,0x018,,,,,,,,,,,,,,,,,,
24326078,0,-12,1013,844,529,258,-24,246,-286,,,,0x058,,,,,,,,,,,,,,,,,,
24334921,0,-12,1013,844,529,258,-16,249,-300,,,,0x020,,,,,,,,,,,,,,,,,,
24404863,3,-15,1020,-993,-901,-126,-16,249,-300,,,,0x058,,,,,,,,,,,,,,,,,,
24432160,3,-15,1020,-993,-901,-126,-27,241,-289,,,,0x020,,,,,,,,,,,,,,,,,,
24485699,0,-14,1011,1995,236,83,-27,241,-289,,,,0x058,,,,,,,,,,,,,,,,,,
24531446,0,-14,1011,1995,236,83,-19,235,-298,,,,0x020,,,,,,,,,,,,,,,,,,
24564472,6,-29,1009,5298,-704,2708,-19,235,-298,,,,0x018,,,,,,,,,,,,,,,,,,
24630722,6,-29,1009,5298,-704,2708,-13,228,-289,,,,0x060,,,,,,,,,,,,,,,,,,
24643250,4,20,1031,11541,-1255,11322,-13,228,-289,,,,0x018,,,,,,,,,,,,,,,,,,
24723860,-2,52,1018,573,2458,7940,-13,228,-289,,,,0x058,,,,,,,,,,,,,,,,,,
24728604,-2,52,1018,573,2458,7940,-16,234,-291,,,,0x020,,,,,,,,,,,,,,,,,,
24802643,-25,38,990,7538,3294,-958,-16,234,-291,,,,0x058,,,,,,,,,,,,,,,,,,
24827886,-25,38,990,7538,3294,-958,-21,222,-285,,,,0x020,,,,,,,,,,,,,,,,,,
24883474,-23,43,1041,8155,-2476,-2935,-21,222,-285,,,,0x058,,,,,,,,,,,,,,,,,,
24927168,-23,43,1041,8155,-2476,-2935,-27,222,-295,,,,0x020,,,,,,,,,,,,,,,,,,
24962250,17,50,979,4178,-2830,-1833,-27,222,-295,,,,0x018,,,,,,,,,,,,,,,,,,
25026457,17,50,979,4178,-2830,-1833,-19,225,-297,,,,0x060,,,,,,,,,,,,,,,,,,
25041032,55,15,1050,5057,-4733,-3171,-19,225,-297,,,,0x018,,,,,,,,,,,,,,,,,,
25121635,28,-9,1046,7253,2677,-1631,-19,225,-297,,,,0x058,,,,,,,,,,,,,,,,,,
25124328,28,-9,1046,7253,2677,-1631,-25,220,-294,,,,0x020,,,,,,,,,,,,,,,,,,
25200421,-10,37,1043,6483,6825,5315,-25,220,-294,,,,0x058,,,,,,,,,,,,,,,,,,
25223616,-10,37,1043,6483,6825,5315,-22,222,-288,,,,0x020,,,,,,,,,,,,,,,,,,
25279199,-26,87,1023,4615,8798,7380,-22,222,-288,,,,0x058,,,,,,,,,,,,,,,,,,
25322898,-26,87,1023,4615,8798,7380,-24,214,-289,,,,0x020,,,,,,,,,,,,,,,,,,
25360025,-50,50,962,-48,8268,905,-24,214,-289,,,,0x018,,,,,,,,,,,,,,,,,,
25422178,-50,50,962,-48,8268,905,-24,219,-292,,,,0x060,,,,,,,,,,,,,,,,,,
25438807,-39,69,1004,-83,1360,-726,-24,219,-292,,,,0x018,,,,,,,,,,,,,,,,,,
25519417,-18,81,1017,-3263,266,-866,-31,222,-286,,,,0x078,,,,,,,,,,,,,,,,,,
25598190,-32,75,995,-5726,1850,-3360,-31,222,-286,,,,0x058,,,,,,,,,,,,,,,,,,
25619335,-32,75,995,-5726,1850,-3360,-25,214,-301,,,,0x020,,,,,,,,,,,,,,,,,,
25676967,-31,50,1014,-6868,-420,-10828,-25,214,-301,,,,0x018,,,,,,,,,,,,,,,,,,
25718620,-31,50,1014,-6868,-420,-10828,-39,228,-297,,,,0x060,,,,,,,,,,,,,,,,,,
25757800,-27,4,1006,-11064,428,-13081,-39,228,-297,,,,0x018,,,,,,,,,,,,,,,,,,
25817908,-27,4,1006,-11064,428,-13081,-27,223,-298,,,,0x060,,,,,,,,,,,,,,,,,,
25836585,-40,42,1023,-5197,-612,-6081,-27,223,-298,,,,0x018,,,,,,,,,,,,,,,,,,
25915138,-17,18,1032,-4847,-1977,-14756,-45,226,-295,,,,0x078,,,,,,,,,,,,,,,,,,
25995966,-27,25,1006,927,1063,-22150,-45,226,-295,,,,0x058,,,,,,,,,,,,,,,,,,
26015061,-27,25,1006,927,1063,-22150,-43,211,-289,,,,0x020,,,,,,,,,,,,,,,,,,
26074738,-14,-2,1034,3701,-4414,-32497,-43,211,-289,,,,0x018,,,,,,,,,,,,,,,,,,
26114342,-14,-2,1034,3701,-4414,-32497,-36,211,-292,,,,0x060,,,,,,,,,,,,,,,,,,
26153520,-28,33,985,568,-7341,-33613,-36,211,-292,,,,0x018,,,,,,,,,,,,,,,,,,
26213626,-28,33,985,568,-7341,-33613,-37,201,-292,,,,0x060,,,,,,,,,,,,,,,,,,
26234354,-19,55,1025,-10591,-13120,-33341,-37,201,-292,,,,0x018,,,,,,,,,,,,,,,,,,
26310863,-19,55,1025,-10591,-13120,-33341,-45,201,-291,,,,0x060,,,,,,,,,,,,,,,,,,
26313139,15,-4,1025,-936,-7857,-40044,-45,201,-291,,,,0x018,,,,,,,,,,,,,,,,,,
26393735,28,1,1026,-1251,-3854,-49603,-45,201,-291,,,,0x018,,,,,,,,,,,,,,,,,,
26410786,28,1,1026,-1251,-3854,-49603,-40,175,-300,,,,0x060,,,,,,,,,,,,,,,,,,
26472517,-7,93,1012,21424,-590,-49840,-40,175,-300,,,,0x018,,,,,,,,,,,,,,,,,,
26510071,-7,93,1012,21424,-590,-49840,-61,175,-298,,,,0x060,,,,,,,,,,,,,,,,,,
26551302,43,15,1014,-6020,-8592,-60108,-61,175,-298,,,,0x018,,,,,,,,,,,,,,,,,,
26609359,43,15,1014,-6020,-8592,-60108,-54,166,-297,,,,0x060,,,,,,,,,,,,,,,,,,
26632137,28,40,1004,-12573,-7761,-60720,-54,166,-297,,,,0x018,,,,,,,,,,,,,,,,,,
26706591,28,40,1004,-12573,-7761,-60720,-81,159,-309,,,,0x060,,,,,,,,,,,,,,,,,,
26710917,59,-45,1047,-15881,-1824,-62650,-81,159,-309,,,,0x018,,,,,,,,,,,,,,,,,,
26789467,34,-24,1070,2817,11125,-49494,-81,159,-309,,,,0x018,,,,,,,,,,,,,,,,,,
26806520,34,-24,1070,2817,11125,-49494,-87,154,-303,,,,0x060,,,,,,,,,,,,,,,,,,
26870304,12,-18,964,4186,15242,-46383,-87,154,-303,,,,0x018,,,,,,,,,,,,,,,,,,
26905807,12,-18,964,4186,15242,-46383,-108,151,-304,,,,0x060,,,,,,,,,,,,,,,,,,
26949086,0,-15,1019,-4528,5810,-41606,-108,151,-304,,,,0x018,,,,,,,,,,,,,,,,,,
27005080,0,-15,1019,-4528,5810,-41606,-120,141,-324,,,,0x060,,,,,,,,,,,,,,,,,,
27027860,-15,0,1034,297,7735,-40871,-120,141,-324,,,,0x018,,,,,,,,,,,,,,,,,,
27102312,-15,0,1034,297,7735,-40871,-141,141,-313,,,,0x020,,,,,,,,,,,,,,,,,,
27108696,-21,-4,1014,6536,10416,-43859,-141,141,-313,,,,0x058,,,,,,,,,,,,,,,,,,
27187248,-45,0,960,3570,5678,-39090,-141,141,-313,,,,0x018,,,,,,,,,,,,,,,,,,
27202244,-45,0,960,3570,5678,-39090,-151,130,-321,,,,0x020,,,,,,,,,,,,,,,,,,
27268081,-43,-24,1019,3408,-2594,-36321,-151,130,-321,,,,0x058,,,,,,,,,,,,,,,,,,
27301525,-43,-24,1019,3408,-2594,-36321,-151,127,-324,,,,0x020,,,,,,,,,,,,,,,,,,
27346865,-40,1,1013,4361,-1268,-31653,-151,127,-324,,,,0x058,,,,,,,,,,,,,,,,,,
27400816,-40,1,1013,4361,-1268,-31653,-162,117,-315,,,,0x020,,,,,,,,,,,,,,,,,,
27425654,-29,17,1001,-1225,-5971,-28358,-162,117,-315,,,,0x058,,,,,,,,,,,,,,,,,,
27498053,-29,17,1001,-1225,-5971,-28358,-160,135,-324,,,,0x020,,,,,,,,,,,,,,,,,,
27506478,-20,-6,1050,-12477,-12215,-28196,-160,135,-324,,,,0x018,,,,,,,,,,,,,,,,,,
27585031,-12,-23,1012,-13142,-9183,-27230,-160,135,-324,,,,0x058,,,,,,,,,,,,,,,,,,
27597974,-12,-23,1012,-13142,-9183,-27230,-166,130,-325,,,,0x020,,,,,,,,,,,,,,,,,,
27663815,-12,-23,1012,-1386,-7406,-24154,-166,130,-325,,,,0x050,,,,,,,,,,,,,,,,,,
27666190,14,-75,1016,-1386,-7406,-24154,-166,130,-325,,,,0x008,,,,,,,,,,,,,,,,,,
27697268,14,-75,1016,-1386,-7406,-24154,-174,145,-322,,,,0x020,,,,,,,,,,,,,,,,,,
27744659,20,-44,1025,-6514,-4519,-24832,-174,145,-322,,,,0x058,,,,,,,,,,,,,,,,,,
27796559,20,-44,1025,-6514,-4519,-24832,-177,141,-325,,,,0x020,,,,,,,,,,,,,,,,,,
27823446,28,-54,1003,651,1413,-23533,-177,141,-325,,,,0x058,,,,,,,,,,,,,,,,,,
27893793,28,-54,1003,651,1413,-23533,-180,138,-331,,,,0x020,,,,,,,,,,,,,,,,,,
27902219,28,-54,1003,3885,-901,-17351,-180,138,-331,,,,0x010,,,,,,,,,,,,,,,,,,
27904594,15,-36,1002,3885,-901,-17351,-180,138,-331,,,,0x008,,,,,,,,,,,,,,,,,,
27982831,20,-36,1026,1172,-2887,-16196,-180,138,-331,,,,0x058,,,,,,,,,,,,,,,,,,
27993726,20,-36,1026,1172,-2887,-16196,-186,133,-328,,,,0x020,,,,,,,,,,,,,,,,,,
28061616,13,-62,1051,-1903,-170,-15995,-186,133,-328,,,,0x058,,,,,,,,,,,,,,,,,,
28093013,13,-62,1051,-1903,-170,-15995,-193,151,-337,,,,0x020,,,,,,,,,,,,,,,,,,
28142447,11,-28,1011,-8063,-2126,-7752,-193,151,-337,,,,0x058,,,,,,,,,,,,,,,,,,
28192297,11,-28,1011,-8063,-2126,-7752,-186,138,-330,,,,0x020,,,,,,,,,,,,,,,,,,
28221225,33,-46,988,765,-2935,-8321,-186,138,-330,,,,0x018,,,,,,,,,,,,,,,,,,
28289530,33,-46,988,765,-2935,-8321,-174,130,-327,,,,0x060,,,,,,,,,,,,,,,,,,
28300007,39,-47,1027,3762,-6015,-6168,-174,130,-327,,,,0x018,,,,,,,,,,,,,,,,,,
28380618,46,-51,1030,4558,-3583,-4248,-174,130,-327,,,,0x058,,,,,,,,,,,,,,,,,,
28389461,46,-51,1030,4558,-3583,-4248,-184,135,-336,,,,0x020,,,,,,,,,,,,,,,,,,
28459398,35,-28,1019,4313,2716,-1583,-184,135,-336,,,,0x058,,,,,,,,,,,,,,,,,,
28488747,35,-28,1019,4313,2716,-1583,-189,130,-340,,,,0x020,,,,,,,,,,,,,,,,,,
28538184,35,-28,1019,4725,4738,-1815,-189,130,-340,,,,0x050,,,,,,,,,,,,,,,,,,
28540560,26,-19,1023,4725,4738,-1815,-189,130,-340,,,,0x008,,,,,,,,,,,,,,,,,,
28585988,26,-19,1023,4725,4738,-1815,-190,135,-333,,,,0x020,,,,,,,,,,,,,,,,,,
28619017,23,-33,1010,848,1430,-551,-190,135,-333,,,,0x018,,,,,,,,,,,,,,,,,,
28685272,23,-33,1010,848,1430,-551,-183,133,-325,,,,0x060,,,,,,,,,,,,,,,,,,
28697799,43,-61,1017,-459,560,3613,-183,133,-325,,,,0x018,,,,,,,,,,,,,,,,,,
28778409,27,-28,1015,-70,-1264,13216,-183,133,-325,,,,0x058,,,,,,,,,,,,,,,,,,
28785203,27,-28,1015,-70,-1264,13216,-174,135,-321,,,,0x020,,,,,,,,,,,,,,,,,,
28857189,25,-28,989,2555,-105,16563,-174,135,-321,,,,0x058,,,,,,,,,,,,,,,,,,
28884483,25,-28,989,2555,-105,16563,-175,136,-325,,,,0x020,,,,,,,,,,,,,,,,,,
28935973,25,-62,1021,4313,-1338,17819,-175,136,-325,,,,0x058,,,,,,,,,,,,,,,,,,
28981718,25,-62,1021,4313,-1338,17819,-160,129,-324,,,,0x020,,,,,,,,,,,,,,,,,,
29016798,39,28,1027,7756,345,36750,-160,129,-324,,,,0x018,,,,,,,,,,,,,,,,,,
29081005,39,28,1027,7756,345,36750,-157,124,-325,,,,0x060,,,,,,,,,,,,,,,,,,
29095582,37,-24,966,2730,3806,31045,-157,124,-325,,,,0x018,,,,,,,,,,,,,,,,,,
29174134,29,-18,1053,7008,-6545,27203,-157,124,-325,,,,0x058,,,,,,,,,,,,,,,,,,
29180927,29,-18,1053,7008,-6545,27203,-148,127,-324,,,,0x020,,,,,,,,,,,,,,,,,,
29254967,31,14,1038,4493,-2813,26048,-148,127,-324,,,,0x058,,,,,,,,,,,,,,,,,,
29278162,31,14,1038,4493,-2813,26048,-138,124,-318,,,,0x020,,,,,,,,,,,,,,,,,,
29333741,45,5,994,-1754,468,29583,-138,124,-318,,,,0x018,,,,,,,,,,,,,,,,,,
29377445,45,5,994,-1754,468,29583,-124,129,-319,,,,0x060,,,,,,,,,,,,,,,,,,
29414572,51,-21,1048,1859,-2226,34523,-124,129,-319,,,,0x018,,,,,,,,,,,,,,,,,,
29476727,51,-21,1048,1859,-2226,34523,-115,136,-312,,,,0x060,,,,,,,,,,,,,,,,,,
29493357,35,-20,1017,-2695,6068,35367,-115,136,-312,,,,0x018,,,,,,,,,,,,,,,,,,
29571916,21,-52,989,-15207,1365,32112,-115,136,-312,,,,0x058,,,,,,,,,,,,,,,,,,
29576661,21,-52,989,-15207,1365,32112,-114,148,-328,,,,0x020,,,,,,,,,,,,,,,,,,
29652752,47,-26,1020,5976,-4698,44935,-114,148,-328,,,,0x058,,,,,,,,,,,,,,,,,,
29673898,47,-26,1020,5976,-4698,44935,-103,145,-310,,,,0x020,,,,,,,,,,,,,,,,,,
29731525,45,-8,1046,12586,1798,53147,-103,145,-310,,,,0x018,,,,,,,,,,,,,,,,,,
29773178,45,-8,1046,12586,1798,53147,-81,144,-306,,,,0x060,,,,,,,,,,,,,,,,,,
29810311,18,7,1000,13107,8942,57557,-81,144,-306,,,,0x018,,,,,,,,,,,,,,,,,,
29872467,18,7,1000,13107,8942,57557,-78,153,-301,,,,0x060,,,,,,,,,,,,,,,,,,
29891146,29,-58,989,-4939,83,59836,-78,153,-301,,,,0x018,,,,,,,,,,,,,,,,,,
29969701,26,7,1112,-36312,-5026,59766,-78,153,-301,,,,0x058,,,,,,,,,,,,,,,,,,
29972393,26,7,1112,-36312,-5026,59766,-66,180,-312,,,,0x020,,,,,,,,,,,,,,,,,,
30048471,26,7,1112,1198,18694,43421,-66,180,-312,,,,0x010,,,,,,,,,,,,,,,,,,
30050846,11,-11,931,1198,18694,43421,-66,180,-312,,,,0x048,,,,,,,,,,,,,,,,,,
30069624,11,-11,931,1198,18694,43421,-64,192,-312,,,,0x020,,,,,,,,,,,,,,,,,,
30129306,0,-79,1033,9476,5499,35091,-64,192,-312,,,,0x018,,,,,,,,,,,,,,,,,,
30168913,0,-79,1033,9476,5499,35091,-64,190,-315,,,,0x060,,,,,,,,,,,,,,,,,,
30208090,-14,-27,1046,10780,4952,40425,-64,190,-315,,,,0x018,,,,,,,,,,,,,,,,,,
30268195,-14,-27,1046,10780,4952,40425,-70,184,-303,,,,0x060,,,,,,,,,,,,,,,,,,
30288921,-23,-29,1030,12140,8553,39186,-70,184,-303,,,,0x018,,,,,,,,,,,,,,,,,,
30367477,-32,-7,986,-3574,10373,43036,-61,204,-313,,,,0x078,,,,,,,,,,,,,,,,,,
30446246,-50,-17,1027,616,7306,44568,-61,204,-313,,,,0x018,,,,,,,,,,,,,,,,,,
30465349,-50,-17,1027,616,7306,44568,-61,205,-300,,,,0x060,,,,,,,,,,,,,,,,,,
30527079,-73,37,1005,-4309,4283,41361,-61,205,-300,,,,0x018,,,,,,,,,,,,,,,,,,
30564631,-73,37,1005,-4309,4283,41361,-51,204,-310,,,,0x060,,,,,,,,,,,,,,,,,,
30605862,-62,-42,981,3473,-70,27606,-51,204,-310,,,,0x018,,,,,,,,,,,,,,,,,,
30663920,-62,-42,981,3473,-70,27606,-55,214,-303,,,,0x060,,,,,,,,,,,,,,,,,,
30684650,-52,-37,1029,525,-988,31031,-55,214,-303,,,,0x018,,,,,,,,,,,,,,,,,,
30763212,-52,-37,1029,525,-988,31031,-57,220,-306,,,,0x060,,,,,,,,,,,,,,,,,,
30765487,-59,2,1043,406,3395,35210,-57,220,-306,,,,0x018,,,,,,,,,,,,,,,,,,
30844031,-81,58,1003,218,5092,30528,-57,220,-306,,,,0x018,,,,,,,,,,,,,,,,,,
30861075,-81,58,1003,218,5092,30528,-48,231,-300,,,,0x060,,,,,,,,,,,,,,,,,,
30924859,-58,-31,1007,-7708,-2428,15207,-48,231,-300,,,,0x018,,,,,,,,,,,,,,,,,,
30960357,-58,-31,1007,-7708,-2428,15207,-45,226,-297,,,,0x020,,,,,,,,,,,,,,,,,,
31003649,-74,20,1005,-2104,-3915,19849,-45,226,-297,,,,0x058,,,,,,,,,,,,,,,,,,
31059649,-74,20,1005,-2104,-3915,19849,-43,232,-303,,,,0x020,,,,,,,,,,,,,,,,,,
31082436,-56,-31,1025,525,-1133,16266,-43,232,-303,,,,0x058,,,,,,,,,,,,,,,,,,
31158930,-56,-31,1025,525,-1133,16266,-40,232,-304,,,,0x020,,,,,,,,,,,,,,,,,,
31163256,-64,9,1010,-7105,1535,19936,-40,232,-304,,,,0x018,,,,,,,,,,,,,,,,,,
31241816,-79,-33,1025,1115,-875,13483,-40,232,-304,,,,0x058,,,,,,,,,,,,,,,,,,
31256812,-79,-33,1025,1115,-875,13483,-36,247,-295,,,,0x020,,,,,,,,,,,,,,,,,,
31320605,-58,-38,1031,-6418,-446,10675,-36,247,-295,,,,0x058,,,,,,,,,,,,,,,,,,
31356102,-58,-38,1031,-6418,-446,10675,-37,256,-306,,,,0x020,,,,,,,,,,,,,,,,,,
31401437,-55,-24,1020,-4265,3648,11270,-37,256,-306,,,,0x058,,,,,,,,,,,,,,,,,,
31455382,-55,-24,1020,-4265,3648,11270,-36,247,-300,,,,0x020,,,,,,,,,,,,,,,,,,
31480220,-80,-8,1015,1675,3718,10110,-36,247,-300,,,,0x058,,,,,,,,,,,,,,,,,,
31554669,-80,-8,1015,1675,3718,10110,-33,267,-307,,,,0x020,,,,,,,,,,,,,,,,,,
31558997,-88,-21,983,3045,2143,6094,-33,267,-307,,,,0x018,,,,,,,,,,,,,,,,,,
31639607,-73,-43,1014,-5429,-3110,2362,-33,267,-307,,,,0x058,,,,,,,,,,,,,,,,,,
31652552,-73,-43,1014,-5429,-3110,2362,-30,255,-309,,,,0x020,,,,,,,,,,,,,,,,,,
31718387,-70,-39,1009,1050,-3797,1916,-30,255,-309,,,,0x058,,,,,,,,,,,,,,,,,,
31751831,-70,-39,1009,1050,-3797,1916,-34,264,-309,,,,0x020,,,,,,,,,,,,,,,,,,
31797169,-71,-1,1005,-590,-2918,1045,-34,264,-309,,,,0x058,,,,,,,,,,,,,,,,,,
31851117,-71,-1,1005,-590,-2918,1045,-33,259,-300,,,,0x020,,,,,,,,,,,,,,,,,,
31878005,-65,-55,1028,3801,-3736,-1526,-33,259,-300,,,,0x058,,,,,,,,,,,,,,,,,,
31948356,-65,-55,1028,3801,-3736,-1526,-27,253,-306,,,,0x020,,,,,,,,,,,,,,,,,,
31956783,-53,-32,1010,-2502,-3325,-691,-27,253,-306,,,,0x018,,,,,,,,,,,,,,,,,,
32035336,-53,-32,1010,-1697,-3731,-1071,-27,253,-306,,,,0x050,,,,,,,,,,,,,,,,,,
32037711,-46,-20,1024,-1697,-3731,-1071,-27,253,-306,,,,0x008,,,,,,,,,,,,,,,,,,
32048289,-46,-20,1024,-1697,-3731,-1071,-30,261,-303,,,,0x020,,,,,,,,,,,,,,,,,,
32116176,-45,-46,1011,651,-1706,-2336,-30,261,-303,,,,0x058,,,,,,,,,,,,,,,,,,
32147570,-45,-46,1011,651,-1706,-2336,-28,255,-298,,,,0x020,,,,,,,,,,,,,,,,,,
32194961,-50,-35,1028,1491,-1631,-1868,-28,255,-298,,,,0x058,,,,,,,,,,,,,,,,,,
32246859,-50,-35,1028,1491,-1631,-1868,-25,253,-289,,,,0x020,,,,,,,,,,,,,,,,,,
32273737,-50,-35,1028,-1120,-831,-1701,-25,253,-289,,,,0x010,,,,,,,,,,,,,,,,,,
32276112,-42,-32,1009,-1120,-831,-1701,-25,253,-289,,,,0x008,,,,,,,,,,,,,,,,,,
32344106,-42,-32,1009,-1120,-831,-1701,-30,261,-292,,,,0x060,,,,,,,,,,,,,,,,,,
32354584,-42,-33,1027,83,-1295,-555,-30,261,-292,,,,0x018,,,,,,,,,,,,,,,,,,
32433137,-42,-23,1013,-2695,-630,-721,-30,261,-292,,,,0x058,,,,,,,,,,,,,,,,,,
32444030,-42,-23,1013,-2695,-630,-721,-30,256,-306,,,,0x020,,,,,,,,,,,,,,,,,,
32513971,-42,-47,1012,-1448,-21,-2266,-30,256,-306,,,,0x058,,,,,,,,,,,,,,,,,,
32543317,-42,-47,1012,-1448,-21,-2266,-28,259,-306,,,,0x020,,,,,,,,,,,,,,,,,,
32592757,-44,-49,1007,-1929,258,-2725,-28,259,-306,,,,0x058,,,,,,,,,,,,,,,,,,
32640557,-44,-49,1007,-1929,258,-2725,-30,255,-303,,,,0x020,,,,,,,,,,,,,,,,,,
32671533,-35,-57,1027,-2931,-1155,-2778,-30,255,-303,,,,0x018,,,,,,,,,,,,,,,,,,
32739835,-35,-57,1027,-2931,-1155,-2778,-24,255,-304,,,,0x060,,,,,,,,,,,,,,,,,,
32752363,-36,-45,1023,-2725,-336,-1710,-24,255,-304,,,,0x018,,,,,,,,,,,,,,,,,,
32830918,-47,-61,1004,-848,765,-1688,-24,255,-304,,,,0x058,,,,,,,,,,,,,,,,,,
32839763,-47,-61,1004,-848,765,-1688,-21,265,-301,,,,0x020,,,,,,,,,,,,,,,,,,
32909704,-40,-45,1004,-161,-83,-940,-21,265,-301,,,,0x058,,,,,,,,,,,,,,,,,,
32937001,-40,-45,1004,-161,-83,-940,-28,262,-297,,,,0x020,,,,,,,,,,,,,,,,,,
32990528,-33,-63,1032,-393,-634,-1710,-28,262,-297,,,,0x018,,,,,,,,,,,,,,,,,,
33036279,-33,-63,1032,-393,-634,-1710,-27,258,-301,,,,0x060,,,,,,,,,,,,,,,,,,
33069310,-41,-55,1015,-577,551,-958,-27,258,-301,,,,0x018,,,,,,,,,,,,,,,,,,
33135567,-41,-55,1015,-577,551,-958,-24,265,-303,,,,0x060,,,,,,,,,,,,,,,,,,
33148095,-38,-70,1020,-1085,603,-1207,-24,265,-303,,,,0x018,,,,,,,,,,,,,,,,,,
33228703,-37,-60,1020,-455,813,-708,-24,265,-303,,,,0x058,,,,,,,,,,,,,,,,,,
