#Format version: 1.0
time[us],accX[mg],accY[mg],accZ[mg],gyroX[mdps],gyroY[mdps],gyroZ[mdps],magnX[mG],magnY[mG],magnZ[mG],press[hPa],temp[C],hum[%RH],newData,interrupts,fsm1,fsm2,fsm3,fsm4,fsm5,fsm6,fsm7,fsm8,fsm9,fsm10,fsm11,fsm12,fsm13,fsm14,fsm15,fsm16,
830,204,-72,1007,853,65,-428,-288,388,-345,,,,0x078,,,,,,,,,,,,,,,,,,
3741,248,-62,1011,927,-1089,1413,-288,388,-345,,,,0x018,,,,,,,,,,,,,,,,,,
14637,248,-62,1011,927,-1089,1413,-280,385,-340,,,,0x020,,,,,,,,,,,,,,,,,,
82512,164,-68,1109,2454,8627,11392,-280,385,-340,,,,0x018,,,,,,,,,,,,,,,,,,
113914,164,-68,1109,2454,8627,11392,-300,376,-340,,,,0x060,,,,,,,,,,,,,,,,,,
161287,151,-74,1021,14336,11764,22653,-300,376,-340,,,,0x018,,,,,,,,,,,,,,,,,,
213183,151,-74,1021,14336,11764,22653,-309,352,-342,,,,0x060,,,,,,,,,,,,,,,,,,
242108,185,-16,942,24416,16047,17329,-309,352,-342,,,,0x018,,,,,,,,,,,,,,,,,,
312461,185,-16,942,24416,16047,17329,-319,343,-337,,,,0x060,,,,,,,,,,,,,,,,,,
320887,167,27,975,16108,24451,6488,-319,343,-337,,,,0x018,,,,,,,,,,,,,,,,,,
401475,89,-13,997,4261,22290,5495,-319,343,-337,,,,0x018,,,,,,,,,,,,,,,,,,
410326,89,-13,997,4261,22290,5495,-340,342,-322,,,,0x060,,,,,,,,,,,,,,,,,,
480255,54,-86,1012,3154,13466,7446,-340,342,-322,,,,0x018,,,,,,,,,,,,,,,,,,
509594,54,-86,1012,3154,13466,7446,-345,336,-327,,,,0x060,,,,,,,,,,,,,,,,,,
559019,54,-86,1012,6741,8426,1299,-345,336,-327,,,,0x010,,,,,,,,,,,,,,,,,,
561394,71,-30,1031,6741,8426,1299,-345,336,-327,,,,0x008,,,,,,,,,,,,,,,,,,
608871,71,-30,1031,6741,8426,1299,-348,337,-328,,,,0x020,,,,,,,,,,,,,,,,,,
639856,0,5,1021,3644,6864,-1767,-348,337,-328,,,,0x058,,,,,,,,,,,,,,,,,,
708143,0,5,1021,3644,6864,-1767,-358,342,-333,,,,0x020,,,,,,,,,,,,,,,,,,
718630,57,2,990,-1693,4707,-6860,-358,342,-333,,,,0x058,,,,,,,,,,,,,,,,,,
799222,51,-11,1000,1697,10145,-5932,-358,342,-333,,,,0x018,,,,,,,,,,,,,,,,,,
806014,51,-11,1000,1697,10145,-5932,-358,337,-322,,,,0x020,,,,,,,,,,,,,,,,,,
877992,38,47,1021,4528,6527,-5066,-358,337,-322,,,,0x058,,,,,,,,,,,,,,,,,,
905284,38,47,1021,4528,6527,-5066,-364,336,-328,,,,0x020,,,,,,,,,,,,,,,,,,
958818,18,20,1024,3211,848,-3473,-364,336,-328,,,,0x058,,,,,,,,,,,,,,,,,,
1004560,18,20,1024,3211,848,-3473,-364,339,-333,,,,0x020,,,,,,,,,,,,,,,,,,
1037590,34,33,1002,4834,-2625,-936,-364,339,-333,,,,0x058,,,,,,,,,,,,,,,,,,
1103827,34,33,1002,4834,-2625,-936,-358,343,-327,,,,0x020,,,,,,,,,,,,,,,,,,
1116354,47,3,1002,2314,144,-1273,-358,343,-327,,,,0x018,,,,,,,,,,,,,,,,,,
1196954,31,21,1015,2506,896,-2432,-358,343,-327,,,,0x058,,,,,,,,,,,,,,,,,,
1201697,31,21,1015,2506,896,-2432,-367,330,-315,,,,0x020,,,,,,,,,,,,,,,,,,
1275726,12,42,1030,3880,2165,927,-367,330,-315,,,,0x058,,,,,,,,,,,,,,,,,,
1300968,12,42,1030,3880,2165,927,-357,336,-321,,,,0x020,,,,,,,,,,,,,,,,,,
1356552,0,34,1025,4970,752,5250,-357,336,-321,,,,0x058,,,,,,,,,,,,,,,,,,
1400242,0,34,1025,4970,752,5250,-355,327,-328,,,,0x020,,,,,,,,,,,,,,,,,,
1435326,45,50,1021,4786,-10080,4095,-355,327,-328,,,,0x058,,,,,,,,,,,,,,,,,,
1499519,45,50,1021,4786,-10080,4095,-354,324,-330,,,,0x020,,,,,,,,,,,,,,,,,,
1516144,40,73,1008,3749,-3285,3504,-354,324,-330,,,,0x018,,,,,,,,,,,,,,,,,,
1594690,26,69,1020,2248,6794,4055,-354,324,-330,,,,0x058,,,,,,,,,,,,,,,,,,
1597383,26,69,1020,2248,6794,4055,-369,322,-327,,,,0x020,,,,,,,,,,,,,,,,,,
1673468,26,69,1020,-4134,2353,975,-369,322,-327,,,,0x050,,,,,,,,,,,,,,,,,,
1675843,38,38,1018,-4134,2353,975,-369,322,-327,,,,0x008,,,,,,,,,,,,,,,,,,
1696671,38,38,1018,-4134,2353,975,-354,333,-331,,,,0x020,,,,,,,,,,,,,,,,,,
1754303,33,16,1019,-10342,-2935,1120,-354,333,-331,,,,0x058,,,,,,,,,,,,,,,,,,
1795951,33,16,1019,-10342,-2935,1120,-366,333,-324,,,,0x020,,,,,,,,,,,,,,,,,,
1833089,47,32,1010,-12429,-3115,8216,-366,333,-324,,,,0x058,,,,,,,,,,,,,,,,,,
1895237,47,32,1010,-12429,-3115,8216,-357,355,-327,,,,0x020,,,,,,,,,,,,,,,,,,
1913916,17,0,1022,-15290,-4532,3005,-357,355,-327,,,,0x018,,,,,,,,,,,,,,,,,,
1992474,28,-22,1009,-16148,-8837,3158,-352,361,-322,,,,0x078,,,,,,,,,,,,,,,,,,
2073303,86,-48,1032,-23638,-18816,-1076,-352,361,-322,,,,0x058,,,,,,,,,,,,,,,,,,
2092397,86,-48,1032,-23638,-18816,-1076,-346,375,-328,,,,0x020,,,,,,,,,,,,,,,,,,
2152087,109,-80,1022,-20020,-7573,-936,-346,375,-328,,,,0x058,,,,,,,,,,,,,,,,,,
2191683,109,-80,1022,-20020,-7573,-936,-351,387,-327,,,,0x020,,,,,,,,,,,,,,,,,,
2230862,110,-180,1064,-34431,12547,6155,-351,387,-327,,,,0x018,,,,,,,,,,,,,,,,,,
2290969,110,-180,1064,-34431,12547,6155,-366,409,-297,,,,0x060,,,,,,,,,,,,,,,,,,
2311696,53,-196,971,-49984,20055,24430,-366,409,-297,,,,0x018,,,,,,,,,,,,,,,,,,
2390247,20,-264,989,-45045,8015,18501,-378,430,-295,,,,0x078,,,,,,,,,,,,,,,,,,
2471071,5,-360,981,-48448,774,721,-378,430,-295,,,,0x058,,,,,,,,,,,,,,,,,,
2488115,5,-360,981,-48448,774,721,-372,451,-280,,,,0x020,,,,,,,,,,,,,,,,,,
2549852,44,-380,923,-59272,-9528,5066,-372,451,-280,,,,0x058,,,,,,,,,,,,,,,,,,
2587396,44,-380,923,-59272,-9528,5066,-364,478,-270,,,,0x020,,,,,,,,,,,,,,,,,,
2630676,48,-449,889,-57575,-6728,6413,-364,478,-270,,,,0x018,,,,,,,,,,,,,,,,,,
2686680,48,-449,889,-57575,-6728,6413,-366,523,-238,,,,0x060,,,,,,,,,,,,,,,,,,
2709460,39,-516,838,-54591,-3136,4252,-366,523,-238,,,,0x018,,,,,,,,,,,,,,,,,,
2783919,39,-516,838,-54591,-3136,4252,-369,544,-229,,,,0x060,,,,,,,,,,,,,,,,,,
2788246,26,-588,829,-56476,-5893,3198,-369,544,-229,,,,0x018,,,,,,,,,,,,,,,,,,
2868851,41,-649,767,-48698,-9148,-3259,-369,544,-229,,,,0x058,,,,,,,,,,,,,,,,,,
2883845,41,-649,767,-48698,-9148,-3259,-366,564,-210,,,,0x020,,,,,,,,,,,,,,,,,,
2947633,35,-681,726,-37804,-2616,-638,-366,564,-210,,,,0x058,,,,,,,,,,,,,,,,,,
2983129,35,-681,726,-37804,-2616,-638,-361,573,-196,,,,0x020,,,,,,,,,,,,,,,,,,
3028461,52,-750,723,-39383,-7739,1522,-361,573,-196,,,,0x018,,,,,,,,,,,,,,,,,,
3082418,52,-750,723,-39383,-7739,1522,-370,579,-180,,,,0x060,,,,,,,,,,,,,,,,,,
3107247,114,-788,677,-36155,-11235,7621,-370,579,-180,,,,0x018,,,,,,,,,,,,,,,,,,
3179654,114,-788,677,-36155,-11235,7621,-360,601,-162,,,,0x060,,,,,,,,,,,,,,,,,,
3186031,86,-747,628,-34094,-14363,-3863,-360,601,-162,,,,0x018,,,,,,,,,,,,,,,,,,
3266635,74,-870,598,-45609,12145,-2948,-360,601,-162,,,,0x058,,,,,,,,,,,,,,,,,,
3279578,74,-870,598,-45609,12145,-2948,-364,613,-129,,,,0x020,,,,,,,,,,,,,,,,,,
3345411,75,-899,547,-59801,19915,10005,-364,613,-129,,,,0x018,,,,,,,,,,,,,,,,,,
3378866,75,-899,547,-59801,19915,10005,-375,619,-91,,,,0x060,,,,,,,,,,,,,,,,,,
3426244,48,-922,435,-72616,23550,7468,-375,619,-91,,,,0x018,,,,,,,,,,,,,,,,,,
3476100,48,-922,435,-72616,23550,7468,-382,636,-55,,,,0x060,,,,,,,,,,,,,,,,,,
3505030,30,-947,386,-59933,22439,573,-382,636,-55,,,,0x018,,,,,,,,,,,,,,,,,,
3575380,30,-947,386,-59933,22439,573,-379,649,0,,,,0x060,,,,,,,,,,,,,,,,,,
3583806,-6,-974,271,-66727,23568,923,-379,649,0,,,,0x018,,,,,,,,,,,,,,,,,,
3664404,-1,-996,194,-66508,24408,-7634,-379,649,0,,,,0x058,,,,,,,,,,,,,,,,,,
3675297,-1,-996,194,-66508,24408,-7634,-382,643,51,,,,0x020,,,,,,,,,,,,,,,,,,
3743173,43,-997,133,-64553,1155,-9222,-382,643,51,,,,0x018,,,,,,,,,,,,,,,,,,
3774574,43,-997,133,-64553,1155,-9222,-385,637,84,,,,0x060,,,,,,,,,,,,,,,,,,
3824002,35,-989,-16,-75621,-9760,-3307,-385,637,84,,,,0x018,,,,,,,,,,,,,,,,,,
3873850,35,-989,-16,-75621,-9760,-3307,-366,634,123,,,,0x060,,,,,,,,,,,,,,,,,,
3902775,49,-1004,-118,-79953,11550,-5276,-366,634,123,,,,0x018,,,,,,,,,,,,,,,,,,
3971074,49,-1004,-118,-79953,11550,-5276,-363,610,184,,,,0x060,,,,,,,,,,,,,,,,,,
3981551,60,-973,-229,-98813,17320,1050,-363,610,184,,,,0x018,,,,,,,,,,,,,,,,,,
4062138,61,-944,-354,-113036,20125,5026,-363,610,184,,,,0x058,,,,,,,,,,,,,,,,,,
4070981,61,-944,-354,-113036,20125,5026,-354,573,252,,,,0x020,,,,,,,,,,,,,,,,,,
4140906,73,-810,-503,-104991,19726,-61,-354,573,252,,,,0x018,,,,,,,,,,,,,,,,,,
4170261,73,-810,-503,-104991,19726,-61,-351,534,289,,,,0x060,,,,,,,,,,,,,,,,,,
4221734,80,-768,-594,-98490,3421,-3683,-351,534,289,,,,0x018,,,,,,,,,,,,,,,,,,
4269532,80,-768,-594,-98490,3421,-3683,-348,484,322,,,,0x060,,,,,,,,,,,,,,,,,,
4300509,96,-675,-717,-101036,-4781,258,-348,484,322,,,,0x018,,,,,,,,,,,,,,,,,,
4366753,96,-675,-717,-101036,-4781,258,-355,429,343,,,,0x060,,,,,,,,,,,,,,,,,,
4379280,96,-675,-717,-92846,-2170,10228,-355,429,343,,,,0x010,,,,,,,,,,,,,,,,,,
4381655,61,-588,-815,-92846,-2170,10228,-355,429,343,,,,0x008,,,,,,,,,,,,,,,,,,
4459874,52,-522,-847,-75166,-441,8885,-355,429,343,,,,0x018,,,,,,,,,,,,,,,,,,
4466668,52,-522,-847,-75166,-441,8885,-352,387,351,,,,0x020,,,,,,,,,,,,,,,,,,
4538654,64,-397,-876,-55453,4388,9909,-352,387,351,,,,0x058,,,,,,,,,,,,,,,,,,
4565945,64,-397,-876,-55453,4388,9909,-354,360,358,,,,0x020,,,,,,,,,,,,,,,,,,
4619474,24,-416,-932,-42503,6536,7376,-354,360,358,,,,0x058,,,,,,,,,,,,,,,,,,
4665219,24,-416,-932,-42503,6536,7376,-346,345,364,,,,0x020,,,,,,,,,,,,,,,,,,
4698253,44,-366,-950,-28555,9559,-2450,-346,345,364,,,,0x058,,,,,,,,,,,,,,,,,,
4762441,44,-366,-950,-28555,9559,-2450,-336,330,363,,,,0x020,,,,,,,,,,,,,,,,,,
4779075,109,-299,-928,-23253,6317,-15938,-336,330,363,,,,0x058,,,,,,,,,,,,,,,,,,
4857617,99,-301,-916,-19687,-4261,-7301,-336,330,363,,,,0x018,,,,,,,,,,,,,,,,,,
4862360,99,-301,-916,-19687,-4261,-7301,-336,330,369,,,,0x020,,,,,,,,,,,,,,,,,,
4938440,87,-254,-940,-21818,4698,-1150,-336,330,369,,,,0x058,,,,,,,,,,,,,,,,,,
4961632,87,-254,-940,-21818,4698,-1150,-322,304,361,,,,0x020,,,,,,,,,,,,,,,,,,
5017217,84,-228,-974,-29693,6391,4856,-322,304,361,,,,0x058,,,,,,,,,,,,,,,,,,
5060909,84,-228,-974,-29693,6391,4856,-349,283,363,,,,0x020,,,,,,,,,,,,,,,,,,
5095993,85,-144,-941,-53418,-18983,8019,-349,283,363,,,,0x058,,,,,,,,,,,,,,,,,,
5158133,85,-144,-941,-53418,-18983,8019,-343,241,363,,,,0x020,,,,,,,,,,,,,,,,,,
5176810,75,-80,-975,-53361,-4060,-4637,-343,241,363,,,,0x018,,,,,,,,,,,,,,,,,,
5255358,54,31,-997,-50308,3556,-14748,-343,241,363,,,,0x058,,,,,,,,,,,,,,,,,,
5258051,54,31,-997,-50308,3556,-14748,-345,219,352,,,,0x020,,,,,,,,,,,,,,,,,,
5336177,73,47,-985,-72708,-4029,-9791,-345,219,352,,,,0x058,,,,,,,,,,,,,,,,,,
5357320,73,47,-985,-72708,-4029,-9791,-351,180,337,,,,0x020,,,,,,,,,,,,,,,,,,
5414953,75,119,-929,-28586,-6282,2979,-351,180,337,,,,0x058,,,,,,,,,,,,,,,,,,
5454542,75,119,-929,-28586,-6282,2979,-348,159,324,,,,0x020,,,,,,,,,,,,,,,,,,
5493727,53,236,-949,-53226,-1758,1789,-348,159,324,,,,0x058,,,,,,,,,,,,,,,,,,
5553820,53,236,-949,-53226,-1758,1789,-340,111,306,,,,0x020,,,,,,,,,,,,,,,,,,
5574544,45,311,-938,-77945,7280,-2961,-340,111,306,,,,0x018,,,,,,,,,,,,,,,,,,
5653089,66,353,-818,-66640,4523,-6785,-340,97,286,,,,0x078,,,,,,,,,,,,,,,,,,
5733910,101,446,-852,-66307,15321,581,-340,97,286,,,,0x058,,,,,,,,,,,,,,,,,,
5753003,101,446,-852,-66307,15321,581,-327,57,261,,,,0x020,,,,,,,,,,,,,,,,,,
5812683,84,585,-865,-72375,13400,2428,-327,57,261,,,,0x058,,,,,,,,,,,,,,,,,,
5850225,84,585,-865,-72375,13400,2428,-325,36,234,,,,0x020,,,,,,,,,,,,,,,,,,
5891459,84,585,-865,-57710,4900,-6790,-325,36,234,,,,0x050,,,,,,,,,,,,,,,,,,
5893835,111,615,-737,-57710,4900,-6790,-325,36,234,,,,0x008,,,,,,,,,,,,,,,,,,
5949511,111,615,-737,-57710,4900,-6790,-325,9,219,,,,0x020,,,,,,,,,,,,,,,,,,
5972287,83,673,-708,-49332,10880,-634,-325,9,219,,,,0x018,,,,,,,,,,,,,,,,,,
6048782,83,673,-708,-49332,10880,-634,-313,1,193,,,,0x060,,,,,,,,,,,,,,,,,,
6051057,110,703,-684,-44165,8408,-2362,-313,1,193,,,,0x018,,,,,,,,,,,,,,,,,,
6131661,138,772,-612,-46816,4589,-2384,-313,1,193,,,,0x058,,,,,,,,,,,,,,,,,,
6146654,138,772,-612,-46816,4589,-2384,-322,-19,175,,,,0x020,,,,,,,,,,,,,,,,,,
6210429,139,811,-572,-56196,9292,4186,-322,-19,175,,,,0x058,,,,,,,,,,,,,,,,,,
6245922,139,811,-572,-56196,9292,4186,-322,-34,139,,,,0x020,,,,,,,,,,,,,,,,,,
6291246,106,863,-471,-57806,-2279,4051,-322,-34,139,,,,0x018,,,,,,,,,,,,,,,,,,
6345193,106,863,-471,-57806,-2279,4051,-318,-48,97,,,,0x060,,,,,,,,,,,,,,,,,,
6370020,116,896,-345,-69873,-1579,-7437,-318,-48,97,,,,0x018,,,,,,,,,,,,,,,,,,
6444472,116,896,-345,-69873,-1579,-7437,-321,-57,58,,,,0x060,,,,,,,,,,,,,,,,,,
6448798,139,887,-365,-80644,5888,-3653,-321,-57,58,,,,0x018,,,,,,,,,,,,,,,,,,
6529392,116,963,-225,-65314,1789,13177,-321,-57,58,,,,0x058,,,,,,,,,,,,,,,,,,
6542335,116,963,-225,-65314,1789,13177,-313,-69,10,,,,0x020,,,,,,,,,,,,,,,,,,
6608169,157,992,-134,-74865,2314,12451,-313,-69,10,,,,0x058,,,,,,,,,,,,,,,,,,
6641611,157,992,-134,-74865,2314,12451,-295,-75,-39,,,,0x020,,,,,,,,,,,,,,,,,,
6688983,163,1022,-56,-86419,-1028,14844,-295,-75,-39,,,,0x018,,,,,,,,,,,,,,,,,,
6740882,163,1022,-56,-86419,-1028,14844,-298,-69,-103,,,,0x060,,,,,,,,,,,,,,,,,,
6767759,180,975,126,-103578,-25108,13050,-298,-69,-103,,,,0x018,,,,,,,,,,,,,,,,,,
6840161,180,975,126,-103578,-25108,13050,-297,-36,-153,,,,0x060,,,,,,,,,,,,,,,,,,
6846537,201,906,225,-97387,-16257,2817,-297,-36,-153,,,,0x018,,,,,,,,,,,,,,,,,,
6927131,215,929,313,-79913,175,1400,-297,-36,-153,,,,0x058,,,,,,,,,,,,,,,,,,
6938024,215,929,313,-79913,175,1400,-297,-15,-208,,,,0x020,,,,,,,,,,,,,,,,,,
7005903,164,887,463,-97881,7284,-10736,-297,-15,-208,,,,0x058,,,,,,,,,,,,,,,,,,
7037295,164,887,463,-97881,7284,-10736,-307,33,-256,,,,0x020,,,,,,,,,,,,,,,,,,
7086719,151,812,578,-98870,-1233,-9380,-307,33,-256,,,,0x018,,,,,,,,,,,,,,,,,,
7136571,151,812,578,-98870,-1233,-9380,-310,70,-283,,,,0x060,,,,,,,,,,,,,,,,,,
7165495,172,719,663,-87780,-11331,-7030,-310,70,-283,,,,0x018,,,,,,,,,,,,,,,,,,
7235841,172,719,663,-87780,-11331,-7030,-307,115,-319,,,,0x060,,,,,,,,,,,,,,,,,,
7244270,173,627,737,-87613,-3373,-9524,-307,115,-319,,,,0x018,,,,,,,,,,,,,,,,,,
7324869,147,573,813,-77560,6531,-3753,-307,115,-319,,,,0x058,,,,,,,,,,,,,,,,,,
7333712,147,573,813,-77560,6531,-3753,-321,166,-331,,,,0x020,,,,,,,,,,,,,,,,,,
7403633,150,507,869,-77498,1575,-3985,-321,166,-331,,,,0x018,,,,,,,,,,,,,,,,,,
7432982,150,507,869,-77498,1575,-3985,-328,220,-339,,,,0x060,,,,,,,,,,,,,,,,,,
7484459,128,352,930,-84424,1841,-7122,-328,220,-339,,,,0x018,,,,,,,,,,,,,,,,,,
7532261,128,352,930,-84424,1841,-7122,-321,252,-357,,,,0x060,,,,,,,,,,,,,,,,,,
7563235,139,292,971,-60221,-2428,-455,-321,252,-357,,,,0x018,,,,,,,,,,,,,,,,,,
7631531,139,292,971,-60221,-2428,-455,-321,289,-352,,,,0x060,,,,,,,,,,,,,,,,,,
7644057,141,196,995,-58664,1806,-1811,-321,289,-352,,,,0x018,,,,,,,,,,,,,,,,,,
7722612,136,137,993,-60025,9541,-11851,-321,289,-352,,,,0x058,,,,,,,,,,,,,,,,,,
7729405,136,137,993,-60025,9541,-11851,-333,321,-346,,,,0x020,,,,,,,,,,,,,,,,,,
7801376,95,98,1014,-43041,12254,-7122,-333,321,-346,,,,0x018,,,,,,,,,,,,,,,,,,
7828677,95,98,1014,-43041,12254,-7122,-337,351,-345,,,,0x060,,,,,,,,,,,,,,,,,,
7882204,73,54,1016,-32077,8614,-3101,-337,351,-345,,,,0x018,,,,,,,,,,,,,,,,,,
7927953,73,54,1016,-32077,8614,-3101,-345,369,-337,,,,0x060,,,,,,,,,,,,,,,,,,
7960976,78,24,1010,-19871,319,-3552,-345,369,-337,,,,0x018,,,,,,,,,,,,,,,,,,
8027227,78,24,1010,-19871,319,-3552,-339,373,-334,,,,0x060,,,,,,,,,,,,,,,,,,
8041803,114,6,1002,-15938,-1802,-3749,-339,373,-334,,,,0x018,,,,,,,,,,,,,,,,,,
8120340,76,0,1015,-13133,1181,4309,-339,373,-334,,,,0x018,,,,,,,,,,,,,,,,,,
8125090,76,0,1015,-13133,1181,4309,-331,384,-327,,,,0x060,,,,,,,,,,,,,,,,,,
8199117,76,0,1015,-15295,-17386,494,-331,384,-327,,,,0x010,,,,,,,,,,,,,,,,,,
8201492,96,-48,1006,-15295,-17386,494,-331,384,-327,,,,0x008,,,,,,,,,,,,,,,,,,
8224369,96,-48,1006,-15295,-17386,494,-315,397,-330,,,,0x060,,,,,,,,,,,,,,,,,,
8279943,163,-65,1002,-19070,-22929,1793,-315,397,-330,,,,0x018,,,,,,,,,,,,,,,,,,
8323633,163,-65,1002,-19070,-22929,1793,-319,390,-334,,,,0x020,,,,,,,,,,,,,,,,,,
8358718,161,-84,1023,-10062,-7525,9900,-319,390,-334,,,,0x058,,,,,,,,,,,,,,,,,,
8422911,161,-84,1023,-10062,-7525,9900,-322,397,-328,,,,0x020,,,,,,,,,,,,,,,,,,
8439545,155,-88,1000,538,1238,7078,-322,397,-328,,,,0x058,,,,,,,,,,,,,,,,,,
8518082,152,-77,1002,2730,-1041,3648,-322,397,-328,,,,0x018,,,,,,,,,,,,,,,,,,
8520774,152,-77,1002,2730,-1041,3648,-315,393,-330,,,,0x020,,,,,,,,,,,,,,,,,,
8598911,153,-84,1005,-1995,-5407,1041,-315,393,-330,,,,0x058,,,,,,,,,,,,,,,,,,
8620053,153,-84,1005,-1995,-5407,1041,-307,394,-343,,,,0x020,,,,,,,,,,,,,,,,,,
8677683,167,-96,1000,-5985,-8802,2983,-307,394,-343,,,,0x058,,,,,,,,,,,,,,,,,,
8719325,167,-96,1000,-5985,-8802,2983,-309,397,-339,,,,0x020,,,,,,,,,,,,,,,,,,
8756461,180,-86,1008,-1841,-4436,6129,-309,397,-339,,,,0x058,,,,,,,,,,,,,,,,,,
8818605,180,-86,1008,-1841,-4436,6129,-319,399,-336,,,,0x020,,,,,,,,,,,,,,,,,,
8837289,177,-112,992,-293,783,1115,-319,399,-336,,,,0x058,,,,,,,,,,,,,,,,,,
8915824,175,-88,1001,4996,258,542,-318,384,-327,,,,0x038,,,,,,,,,,,,,,,,,,
8996639,170,-86,1002,7875,5853,1470,-318,384,-327,,,,0x058,,,,,,,,,,,,,,,,,,
9015730,170,-86,1002,7875,5853,1470,-315,390,-331,,,,0x020,,,,,,,,,,,,,,,,,,
9075414,156,-69,1003,8054,8658,1968,-315,390,-331,,,,0x058,,,,,,,,,,,,,,,,,,
9115006,156,-69,1003,8054,8658,1968,-334,393,-337,,,,0x020,,,,,,,,,,,,,,,,,,
9154188,140,-70,1003,3885,5731,752,-334,393,-337,,,,0x058,,,,,,,,,,,,,,,,,,
9214276,140,-70,1003,3885,5731,752,-324,394,-333,,,,0x020,,,,,,,,,,,,,,,,,,
9235001,147,-62,1003,1820,-450,1155,-324,394,-333,,,,0x018,,,,,,,,,,,,,,,,,,
9311503,147,-62,1003,1820,-450,1155,-319,391,-346,,,,0x060,,,,,,,,,,,,,,,,,,
9313778,158,-66,1005,-1369,-4261,332,-319,391,-346,,,,0x018,,,,,,,,,,,,,,,,,,
9394377,157,-75,1009,-227,-2450,424,-319,391,-346,,,,0x058,,,,,,,,,,,,,,,,,,
9411421,157,-75,1009,-227,-2450,424,-321,391,-339,,,,0x020,,,,,,,,,,,,,,,,,,
9473154,155,-66,1002,1032,2406,494,-321,391,-339,,,,0x058,,,,,,,,,,,,,,,,,,
9510694,155,-66,1002,1032,2406,494,-321,385,-343,,,,0x020,,,,,,,,,,,,,,,,,,
9551928,151,-68,1004,761,2804,-468,-321,385,-343,,,,0x058,,,,,,,,,,,,,,,,,,
9607920,151,-68,1004,761,2804,-468,-321,393,-342,,,,0x020,,,,,,,,,,,,,,,,,,
9632745,144,-67,1008,1233,3010,-573,-321,393,-342,,,,0x018,,,,,,,,,,,,,,,,,,
9707191,144,-67,1008,1233,3010,-573,-322,385,-336,,,,0x060,,,,,,,,,,,,,,,,,,
9711519,136,-66,1008,2773,4313,813,-322,385,-336,,,,0x018,,,,,,,,,,,,,,,,,,
9792120,132,-54,1013,3346,787,1255,-322,385,-336,,,,0x058,,,,,,,,,,,,,,,,,,
9807112,132,-54,1013,3346,787,1255,-325,378,-336,,,,0x020,,,,,,,,,,,,,,,,,,
9870892,144,-54,986,1198,2016,533,-325,378,-336,,,,0x058,,,,,,,,,,,,,,,,,,
9906384,144,-54,986,1198,2016,533,-327,378,-339,,,,0x020,,,,,,,,,,,,,,,,,,
9951717,136,-64,1010,-1614,-210,293,-327,378,-339,,,,0x058,,,,,,,,,,,,,,,,,,
10005662,136,-64,1010,-1614,-210,293,-330,390,-336,,,,0x020,,,,,,,,,,,,,,,,,,
10030484,138,-67,1023,-997,-3097,560,-330,390,-336,,,,0x018,,,,,,,,,,,,,,,,,,
10102878,138,-67,1023,-997,-3097,560,-327,384,-336,,,,0x060,,,,,,,,,,,,,,,,,,
10109256,144,-62,1009,831,-826,879,-327,384,-336,,,,0x018,,,,,,,,,,,,,,,,,,
10189855,141,-60,1002,1767,1330,323,-327,384,-336,,,,0x058,,,,,,,,,,,,,,,,,,
10202797,141,-60,1002,1767,1330,323,-325,384,-334,,,,0x020,,,,,,,,,,,,,,,,,,
10268629,139,-61,1003,770,2078,-161,-325,384,-334,,,,0x058,,,,,,,,,,,,,,,,,,
10302071,139,-61,1003,770,2078,-161,-327,382,-336,,,,0x020,,,,,,,,,,,,,,,,,,
10349443,131,-57,1018,2581,-568,284,-327,382,-336,,,,0x018,,,,,,,,,,,,,,,,,,
10401342,131,-57,1018,2581,-568,284,-330,382,-337,,,,0x060,,,,,,,,,,,,,,,,,,
10428218,138,-56,1009,2078,-61,476,-330,382,-337,,,,0x018,,,,,,,,,,,,,,,,,,
10498568,138,-56,1009,2078,-61,476,-334,382,-342,,,,0x060,,,,,,,,,,,,,,,,,,
10506994,135,-52,1006,2926,126,2161,-334,382,-342,,,,0x018,,,,,,,,,,,,,,,,,,
10587588,140,-43,1004,1264,-940,1793,-334,382,-342,,,,0x058,,,,,,,,,,,,,,,,,,
10598479,140,-43,1004,1264,-940,1793,-324,376,-334,,,,0x020,,,,,,,,,,,,,,,,,,
10666363,134,-48,1004,879,-13,1890,-324,376,-334,,,,0x058,,,,,,,,,,,,,,,,,,
10697756,134,-48,1004,879,-13,1890,-333,370,-331,,,,0x020,,,,,,,,,,,,,,,,,,
10747177,139,-40,1005,656,546,1443,-333,370,-331,,,,0x018,,,,,,,,,,,,,,,,,,
10797026,139,-40,1005,656,546,1443,-321,375,-333,,,,0x060,,,,,,,,,,,,,,,,,,
10825953,136,-59,1019,-1163,988,573,-321,375,-333,,,,0x018,,,,,,,,,,,,,,,,,,
10896303,136,-59,1019,-1163,988,573,-339,375,-327,,,,0x060,,,,,,,,,,,,,,,,,,
10906779,138,-56,1022,363,-26,-100,-339,375,-327,,,,0x018,,,,,,,,,,,,,,,,,,
10985329,130,-44,1019,5101,8185,100,-339,375,-327,,,,0x058,,,,,,,,,,,,,,,,,,
10994173,130,-44,1019,5101,8185,100,-342,370,-337,,,,0x020,,,,,,,,,,,,,,,,,,
11066147,114,-43,986,5897,13300,2817,-342,370,-337,,,,0x058,,,,,,,,,,,,,,,,,,
11093438,114,-43,986,5897,13300,2817,-337,361,-342,,,,0x020,,,,,,,,,,,,,,,,,,
11144914,109,-50,1009,4103,2660,6820,-337,361,-342,,,,0x018,,,,,,,,,,,,,,,,,,
11192715,109,-50,1009,4103,2660,6820,-348,361,-330,,,,0x060,,,,,,,,,,,,,,,,,,
11223689,124,-71,1005,10053,6588,10758,-348,361,-330,,,,0x018,,,,,,,,,,,,,,,,,,
11291986,124,-71,1005,10053,6588,10758,-360,322,-340,,,,0x060,,,,,,,,,,,,,,,,,,
11304513,88,-27,1030,43701,7035,48619,-360,322,-340,,,,0x018,,,,,,,,,,,,,,,,,,
11383064,97,109,1001,66469,2135,84201,-360,322,-340,,,,0x058,,,,,,,,,,,,,,,,,,
11389856,97,109,1001,66469,2135,84201,-349,252,-342,,,,0x020,,,,,,,,,,,,,,,,,,
11463878,144,174,977,49752,-708,80246,-349,252,-342,,,,0x018,,,,,,,,,,,,,,,,,,
11489128,144,174,977,49752,-708,80246,-334,210,-339,,,,0x060,,,,,,,,,,,,,,,,,,
11542654,114,216,1002,29036,3233,59495,-334,210,-339,,,,0x018,,,,,,,,,,,,,,,,,,
11588403,114,216,1002,29036,3233,59495,-333,202,-337,,,,0x060,,,,,,,,,,,,,,,,,,
11623476,107,194,991,7975,-5385,41046,-333,202,-337,,,,0x018,,,,,,,,,,,,,,,,,,
11687677,107,194,991,7975,-5385,41046,-312,192,-336,,,,0x060,,,,,,,,,,,,,,,,,,
11702254,176,210,970,3736,-7700,42105,-312,192,-336,,,,0x018,,,,,,,,,,,,,,,,,,
11780797,176,210,970,831,-1715,31403,-312,192,-336,,,,0x050,,,,,,,,,,,,,,,,,,
11783172,190,182,959,831,-1715,31403,-312,192,-336,,,,0x008,,,,,,,,,,,,,,,,,,
11785548,190,182,959,831,-1715,31403,-318,180,-337,,,,0x020,,,,,,,,,,,,,,,,,,
11861623,186,234,1006,8413,-6580,35739,-318,180,-337,,,,0x018,,,,,,,,,,,,,,,,,,
11884824,186,234,1006,8413,-6580,35739,-294,165,-330,,,,0x060,,,,,,,,,,,,,,,,,,
11940402,203,111,971,7262,-9590,42288,-294,165,-330,,,,0x018,,,,,,,,,,,,,,,,,,
11984101,203,111,971,7262,-9590,42288,-276,160,-334,,,,0x060,,,,,,,,,,,,,,,,,,
12021226,228,226,983,5862,-14306,40665,-276,160,-334,,,,0x018,,,,,,,,,,,,,,,,,,
12083375,228,226,983,5862,-14306,40665,-258,151,-333,,,,0x060,,,,,,,,,,,,,,,,,,
12100003,283,171,960,3027,-15885,28993,-258,151,-333,,,,0x018,,,,,,,,,,,,,,,,,,
12180588,271,186,987,-3920,-12919,12267,-258,151,-333,,,,0x018,,,,,,,,,,,,,,,,,,
12183281,271,186,987,-3920,-12919,12267,-250,153,-346,,,,0x060,,,,,,,,,,,,,,,,,,
12259357,294,114,950,-4821,-3005,2187,-250,153,-346,,,,0x018,,,,,,,,,,,,,,,,,,
12280498,294,114,950,-4821,-3005,2187,-247,157,-340,,,,0x020,,,,,,,,,,,,,,,,,,
12340176,300,192,997,2594,-7135,17351,-247,157,-340,,,,0x058,,,,,,,,,,,,,,,,,,
12379769,300,192,997,2594,-7135,17351,-237,159,-357,,,,0x020,,,,,,,,,,,,,,,,,,
12418952,382,59,991,-2209,3451,32396,-237,159,-357,,,,0x058,,,,,,,,,,,,,,,,,,
12479041,382,59,991,-2209,3451,32396,-258,163,-343,,,,0x020,,,,,,,,,,,,,,,,,,
12497726,262,70,954,-28840,51878,83676,-258,163,-343,,,,0x058,,,,,,,,,,,,,,,,,,
12578318,140,53,915,-4847,65170,79082,-264,148,-330,,,,0x038,,,,,,,,,,,,,,,,,,
12657082,148,80,1038,34925,-7542,46090,-264,148,-330,,,,0x058,,,,,,,,,,,,,,,,,,
12678225,148,80,1038,34925,-7542,46090,-229,112,-330,,,,0x020,,,,,,,,,,,,,,,,,,
12737911,215,66,1016,50281,-2047,74256,-229,112,-330,,,,0x058,,,,,,,,,,,,,,,,,,
12777503,215,66,1016,50281,-2047,74256,-207,91,-315,,,,0x020,,,,,,,,,,,,,,,,,,
12816686,231,61,1010,17990,13759,93336,-207,91,-315,,,,0x058,,,,,,,,,,,,,,,,,,
12874724,231,61,1010,17990,13759,93336,-192,99,-319,,,,0x020,,,,,,,,,,,,,,,,,,
12897510,188,82,1000,-13978,11431,84612,-192,99,-319,,,,0x058,,,,,,,,,,,,,,,,,,
12974008,188,82,1000,-13978,11431,84612,-160,97,-321,,,,0x020,,,,,,,,,,,,,,,,,,
12976283,167,75,959,5381,11633,81046,-160,97,-321,,,,0x018,,,,,,,,,,,,,,,,,,
13056888,211,32,1009,8360,23996,75442,-160,97,-321,,,,0x058,,,,,,,,,,,,,,,,,,
13073932,211,32,1009,8360,23996,75442,-144,100,-312,,,,0x020,,,,,,,,,,,,,,,,,,
13135673,172,39,978,-3622,5845,70485,-144,100,-312,,,,0x058,,,,,,,,,,,,,,,,,,
13173221,172,39,978,-3622,5845,70485,-129,102,-316,,,,0x020,,,,,,,,,,,,,,,,,,
13214461,127,8,1005,1054,8308,65191,-129,102,-316,,,,0x058,,,,,,,,,,,,,,,,,,
13272509,127,8,1005,1054,8308,65191,-112,100,-309,,,,0x020,,,,,,,,,,,,,,,,,,
13295286,148,10,1000,-371,6278,52718,-112,100,-309,,,,0x018,,,,,,,,,,,,,,,,,,
13369738,148,10,1000,-371,6278,52718,-93,108,-307,,,,0x060,,,,,,,,,,,,,,,,,,
13374065,173,32,1004,10403,-8701,51436,-93,108,-307,,,,0x018,,,,,,,,,,,,,,,,,,
13454675,155,4,1005,17408,-19586,60361,-93,108,-307,,,,0x058,,,,,,,,,,,,,,,,,,
13469670,155,4,1005,17408,-19586,60361,-67,112,-295,,,,0x020,,,,,,,,,,,,,,,,,,
13533459,170,44,1005,13457,-9060,44856,-67,112,-295,,,,0x058,,,,,,,,,,,,,,,,,,
13568955,170,44,1005,13457,-9060,44856,-46,115,-297,,,,0x020,,,,,,,,,,,,,,,,,,
13612242,170,44,1005,8513,13055,42551,-46,115,-297,,,,0x050,,,,,,,,,,,,,,,,,,
13614617,198,16,1012,8513,13055,42551,-46,115,-297,,,,0x008,,,,,,,,,,,,,,,,,,
13668245,198,16,1012,8513,13055,42551,-42,121,-300,,,,0x020,,,,,,,,,,,,,,,,,,
13693074,158,17,1014,-4523,15960,47621,-42,121,-300,,,,0x018,,,,,,,,,,,,,,,,,,
13765478,158,17,1014,-4523,15960,47621,-52,132,-300,,,,0x060,,,,,,,,,,,,,,,,,,
13771855,117,-78,1023,-6698,11698,36111,-52,132,-300,,,,0x018,,,,,,,,,,,,,,,,,,
13852464,106,12,984,-14017,23244,30069,-52,132,-300,,,,0x058,,,,,,,,,,,,,,,,,,
13865408,106,12,984,-14017,23244,30069,-46,145,-310,,,,0x020,,,,,,,,,,,,,,,,,,
13931245,105,-40,1025,30,11182,33285,-46,145,-310,,,,0x058,,,,,,,,,,,,,,,,,,
13964688,105,-40,1025,30,11182,33285,-40,150,-307,,,,0x020,,,,,,,,,,,,,,,,,,
14012077,98,-98,1031,-1041,-691,43439,-40,150,-307,,,,0x058,,,,,,,,,,,,,,,,,,
14063975,98,-98,1031,-1041,-691,43439,-19,169,-313,,,,0x020,,,,,,,,,,,,,,,,,,
14090855,105,-102,1074,-15093,-11178,58843,-19,169,-313,,,,0x018,,,,,,,,,,,,,,,,,,
14163267,105,-102,1074,-15093,-11178,58843,-24,193,-315,,,,0x060,,,,,,,,,,,,,,,,,,
14169644,115,-118,1050,-11287,6461,66801,-24,193,-315,,,,0x018,,,,,,,,,,,,,,,,,,
14250247,70,-170,821,9292,12915,65826,-24,193,-315,,,,0x058,,,,,,,,,,,,,,,,,,
14261139,70,-170,821,9292,12915,65826,7,192,-309,,,,0x020,,,,,,,,,,,,,,,,,,
14329032,99,-98,1039,57369,-36942,92216,7,192,-309,,,,0x058,,,,,,,,,,,,,,,,,,
14360426,99,-98,1039,57369,-36942,92216,33,195,-276,,,,0x020,,,,,,,,,,,,,,,,,,
14409858,118,117,1198,34536,-13654,103700,33,195,-276,,,,0x018,,,,,,,,,,,,,,,,,,
14459715,118,117,1198,34536,-13654,103700,22,231,-298,,,,0x060,,,,,,,,,,,,,,,,,,
14488643,106,-69,847,-25554,41050,79830,22,231,-298,,,,0x018,,,,,,,,,,,,,,,,,,
14558995,106,-69,847,-25554,41050,79830,22,240,-280,,,,0x060,,,,,,,,,,,,,,,,,,
14567422,106,-69,847,23983,4628,74891,22,240,-280,,,,0x010,,,,,,,,,,,,,,,,,,
14569797,54,4,1064,23983,4628,74891,22,240,-280,,,,0x008,,,,,,,,,,,,,,,,,,
14648035,56,16,1014,-11414,3727,70249,22,240,-280,,,,0x058,,,,,,,,,,,,,,,,,,
14656879,56,16,1014,-11414,3727,70249,34,264,-292,,,,0x020,,,,,,,,,,,,,,,,,,
14726822,25,-35,939,8141,4020,59911,34,264,-292,,,,0x058,,,,,,,,,,,,,,,,,,
14756167,25,-35,939,8141,4020,59911,31,273,-282,,,,0x020,,,,,,,,,,,,,,,,,,
14807646,23,-17,988,9852,-11353,64561,31,273,-282,,,,0x018,,,,,,,,,,,,,,,,,,
14855449,23,-17,988,9852,-11353,64561,52,303,-279,,,,0x060,,,,,,,,,,,,,,,,,,
14886426,77,-3,1078,2563,-15456,68232,52,303,-279,,,,0x018,,,,,,,,,,,,,,,,,,
14954734,77,-3,1078,2563,-15456,68232,39,343,-277,,,,0x060,,,,,,,,,,,,,,,,,,
14967263,87,3,1054,-32519,3281,63511,39,343,-277,,,,0x018,,,,,,,,,,,,,,,,,,
15045824,61,-175,1027,-15242,11178,39637,39,343,-277,,,,0x058,,,,,,,,,,,,,,,,,,
15052618,61,-175,1027,-15242,11178,39637,22,367,-273,,,,0x020,,,,,,,,,,,,,,,,,,
15124594,61,-175,1027,-16047,10158,60554,22,367,-273,,,,0x010,,,,,,,,,,,,,,,,,,
15126969,33,-187,1063,-16047,10158,60554,22,367,-273,,,,0x048,,,,,,,,,,,,,,,,,,
15151897,33,-187,1063,-16047,10158,60554,9,396,-282,,,,0x020,,,,,,,,,,,,,,,,,,
15205425,-3,-154,1018,-9878,22159,81519,9,396,-282,,,,0x018,,,,,,,,,,,,,,,,,,
15251181,-3,-154,1018,-9878,22159,81519,-19,444,-286,,,,0x060,,,,,,,,,,,,,,,,,,
15284211,-83,-164,1036,-17661,16681,75901,-19,444,-286,,,,0x018,,,,,,,,,,,,,,,,,,
15350471,-83,-164,1036,-17661,16681,75901,-34,471,-273,,,,0x060,,,,,,,,,,,,,,,,,,
15365047,-101,-153,804,-37209,14061,68525,-34,471,-273,,,,0x018,,,,,,,,,,,,,,,,,,
15443599,-66,-150,1048,-2856,-28122,50343,-34,471,-273,,,,0x058,,,,,,,,,,,,,,,,,,
15448342,-66,-150,1048,-2856,-28122,50343,-42,480,-271,,,,0x020,,,,,,,,,,,,,,,,,,
15524426,-105,-180,1033,-1273,-8968,37843,-42,480,-271,,,,0x018,,,,,,,,,,,,,,,,,,
15547629,-105,-180,1033,-1273,-8968,37843,-55,489,-265,,,,0x060,,,,,,,,,,,,,,,,,,
15603212,-72,-207,996,7354,7096,43010,-55,489,-265,,,,0x018,,,,,,,,,,,,,,,,,,
15646920,-72,-207,996,7354,7096,43010,-82,505,-280,,,,0x060,,,,,,,,,,,,,,,,,,
15681998,-83,-181,977,11668,8277,61683,-82,505,-280,,,,0x018,,,,,,,,,,,,,,,,,,
15746201,-83,-181,977,11668,8277,61683,-106,508,-270,,,,0x060,,,,,,,,,,,,,,,,,,
15762829,-120,-151,1026,13969,-5866,70813,-106,508,-270,,,,0x018,,,,,,,,,,,,,,,,,,
15841383,-113,-127,968,11711,-3123,85273,-106,508,-270,,,,0x058,,,,,,,,,,,,,,,,,,
15844077,-113,-127,968,11711,-3123,85273,-138,516,-283,,,,0x020,,,,,,,,,,,,,,,,,,
15922215,-125,-130,1065,11904,-14061,102532,-138,516,-283,,,,0x018,,,,,,,,,,,,,,,,,,
15943369,-125,-130,1065,11904,-14061,102532,-175,520,-274,,,,0x060,,,,,,,,,,,,,,,,,,
16000997,-103,-90,972,-3714,-2021,101810,-175,520,-274,,,,0x018,,,,,,,,,,,,,,,,,,
16042648,-103,-90,972,-3714,-2021,101810,-201,535,-279,,,,0x060,,,,,,,,,,,,,,,,,,
16079776,-116,-36,1012,-13300,-9358,88191,-201,535,-279,,,,0x018,,,,,,,,,,,,,,,,,,
16141925,-116,-36,1012,-13300,-9358,88191,-240,523,-285,,,,0x060,,,,,,,,,,,,,,,,,,
16160604,-77,-19,957,-14840,-7035,83641,-240,523,-285,,,,0x018,,,,,,,,,,,,,,,,,,
16239147,-94,5,1041,-5127,-25694,71570,-243,522,-279,,,,0x038,,,,,,,,,,,,,,,,,,
16319975,-78,-93,1047,4383,-26726,63122,-243,522,-279,,,,0x058,,,,,,,,,,,,,,,,,,
16339069,-78,-93,1047,4383,-26726,63122,-268,517,-276,,,,0x020,,,,,,,,,,,,,,,,,,
16398760,-102,-80,1094,-9651,-12639,74943,-268,517,-276,,,,0x058,,,,,,,,,,,,,,,,,,
16438356,-102,-80,1094,-9651,-12639,74943,-304,504,-283,,,,0x020,,,,,,,,,,,,,,,,,,
16477542,-41,-68,954,686,13536,87154,-304,504,-283,,,,0x058,,,,,,,,,,,,,,,,,,
16537637,-41,-68,954,686,13536,87154,-357,475,-282,,,,0x020,,,,,,,,,,,,,,,,,,
16558373,-51,34,1006,8430,15198,89123,-357,475,-282,,,,0x058,,,,,,,,,,,,,,,,,,
16636925,-103,-16,989,2996,3863,57426,-357,454,-285,,,,0x038,,,,,,,,,,,,,,,,,,
16717746,-69,-33,1016,-3255,-20667,46235,-357,454,-285,,,,0x058,,,,,,,,,,,,,,,,,,
16734790,-69,-33,1016,-3255,-20667,46235,-357,445,-291,,,,0x020,,,,,,,,,,,,,,,,,,
16796528,-71,-23,1051,638,-20461,42831,-357,445,-291,,,,0x058,,,,,,,,,,,,,,,,,,
16834075,-71,-23,1051,638,-20461,42831,-373,429,-304,,,,0x020,,,,,,,,,,,,,,,,,,
16875314,-51,-27,987,-2030,-4703,47958,-373,429,-304,,,,0x058,,,,,,,,,,,,,,,,,,
16933364,-51,-27,987,-2030,-4703,47958,-373,429,-304,,,,0x020,,,,,,,,,,,,,,,,,,
16956149,-41,-36,1033,-3749,-1089,50631,-373,429,-304,,,,0x058,,,,,,,,,,,,,,,,,,
17032644,-41,-36,1033,-3749,-1089,50631,-387,396,-301,,,,0x020,,,,,,,,,,,,,,,,,,
17034919,-23,0,1018,7315,-5512,58327,-387,396,-301,,,,0x018,,,,,,,,,,,,,,,,,,
17115525,-38,4,1027,8229,3106,44340,-387,396,-301,,,,0x058,,,,,,,,,,,,,,,,,,
17130519,-38,4,1027,8229,3106,44340,-379,388,-301,,,,0x020,,,,,,,,,,,,,,,,,,
17194308,-49,10,1045,4838,-7043,35345,-379,388,-301,,,,0x058,,,,,,,,,,,,,,,,,,
17229805,-49,10,1045,4838,-7043,35345,-394,373,-303,,,,0x020,,,,,,,,,,,,,,,,,,
17275142,-25,13,1024,10976,8596,19866,-394,373,-303,,,,0x058,,,,,,,,,,,,,,,,,,
17329085,-25,13,1024,10976,8596,19866,-403,369,-307,,,,0x020,,,,,,,,,,,,,,,,,,
17353914,-106,1,1014,9751,16056,-840,-403,369,-307,,,,0x018,,,,,,,,,,,,,,,,,,
17428372,-106,1,1014,9751,16056,-840,-408,367,-301,,,,0x060,,,,,,,,,,,,,,,,,,
17432699,-47,88,995,-9279,-1951,-3640,-408,367,-301,,,,0x018,,,,,,,,,,,,,,,,,,
17513306,-52,17,999,-14490,3255,2187,-408,367,-301,,,,0x058,,,,,,,,,,,,,,,,,,
17526250,-52,17,999,-14490,3255,2187,-403,379,-297,,,,0x020,,,,,,,,,,,,,,,,,,
17592087,-48,8,1014,-11843,-10648,-603,-403,379,-297,,,,0x058,,,,,,,,,,,,,,,,,,
17625529,-48,8,1014,-11843,-10648,-603,-388,375,-303,,,,0x020,,,,,,,,,,,,,,,,,,
17672919,-43,-35,1013,1316,-6873,18900,-388,375,-303,,,,0x058,,,,,,,,,,,,,,,,,,
17724815,-43,-35,1013,1316,-6873,18900,-400,370,-319,,,,0x020,,,,,,,,,,,,,,,,,,
17751693,-48,-16,1025,2065,-10780,14586,-400,370,-319,,,,0x018,,,,,,,,,,,,,,,,,,
17824095,-48,-16,1025,2065,-10780,14586,-381,357,-312,,,,0x060,,,,,,,,,,,,,,,,,,
17830472,-5,-13,1028,6947,-14914,16301,-381,357,-312,,,,0x018,,,,,,,,,,,,,,,,,,
17911079,25,6,1008,7297,-15443,11305,-381,357,-312,,,,0x058,,,,,,,,,,,,,,,,,,
17921973,25,6,1008,7297,-15443,11305,-373,345,-321,,,,0x020,,,,,,,,,,,,,,,,,,
17989866,12,88,1013,10368,-8487,18300,-373,345,-321,,,,0x058,,,,,,,,,,,,,,,,,,
18021263,12,88,1013,10368,-8487,18300,-375,343,-330,,,,0x020,,,,,,,,,,,,,,,,,,
18070692,19,50,1006,-2541,-15220,10482,-375,343,-330,,,,0x058,,,,,,,,,,,,,,,,,,
18120536,19,50,1006,-2541,-15220,10482,-342,354,-339,,,,0x020,,,,,,,,,,,,,,,,,,
18149465,168,-31,1008,-14813,-59062,-4751,-342,354,-339,,,,0x018,,,,,,,,,,,,,,,,,,
18219824,168,-31,1008,-14813,-59062,-4751,-318,364,-340,,,,0x060,,,,,,,,,,,,,,,,,,
18228252,168,-31,1008,-10443,-30598,3885,-318,364,-340,,,,0x010,,,,,,,,,,,,,,,,,,
18230627,136,25,984,-10443,-30598,3885,-318,364,-340,,,,0x008,,,,,,,,,,,,,,,,,,
18308872,248,-138,928,-31867,-54438,-5271,-318,364,-340,,,,0x058,,,,,,,,,,,,,,,,,,
18317717,248,-138,928,-31867,-54438,-5271,-261,393,-343,,,,0x020,,,,,,,,,,,,,,,,,,
18387655,351,-65,906,-26499,-98586,2445,-261,393,-343,,,,0x058,,,,,,,,,,,,,,,,,,
18417000,351,-65,906,-26499,-98586,2445,-190,400,-351,,,,0x020,,,,,,,,,,,,,,,,,,
18468475,527,-124,897,-20838,-134137,-11545,-190,400,-351,,,,0x018,,,,,,,,,,,,,,,,,,
18516279,527,-124,897,-20838,-134137,-11545,-94,405,-331,,,,0x060,,,,,,,,,,,,,,,,,,
18547257,670,-111,769,-14297,-121331,-10088,-94,405,-331,,,,0x018,,,,,,,,,,,,,,,,,,
18615568,670,-111,769,-14297,-121331,-10088,-31,403,-310,,,,0x060,,,,,,,,,,,,,,,,,,
18628094,777,-113,642,-7507,-106316,-15264,-31,403,-310,,,,0x018,,,,,,,,,,,,,,,,,,
18706647,862,-112,577,-3469,-110783,-20370,-31,403,-310,,,,0x058,,,,,,,,,,,,,,,,,,
18713440,862,-112,577,-3469,-110783,-20370,30,406,-267,,,,0x020,,,,,,,,,,,,,,,,,,
18787483,894,-100,421,-10605,-95926,-4073,30,406,-267,,,,0x058,,,,,,,,,,,,,,,,,,
18812728,894,-100,421,-10605,-95926,-4073,70,415,-235,,,,0x020,,,,,,,,,,,,,,,,,,
18866261,964,-107,330,-10941,-82652,9410,70,415,-235,,,,0x018,,,,,,,,,,,,,,,,,,
18912017,964,-107,330,-10941,-82652,9410,100,426,-195,,,,0x060,,,,,,,,,,,,,,,,,,
18945048,986,-116,129,1793,-87976,1120,100,426,-195,,,,0x018,,,,,,,,,,,,,,,,,,
19011310,986,-116,129,1793,-87976,1120,154,405,-142,,,,0x060,,,,,,,,,,,,,,,,,,
19025888,1009,-97,66,13838,-112153,-20400,154,405,-142,,,,0x018,,,,,,,,,,,,,,,,,,
19104453,1021,-56,-181,5766,-111125,-25453,154,405,-142,,,,0x058,,,,,,,,,,,,,,,,,,
19109197,1021,-56,-181,5766,-111125,-25453,171,391,-63,,,,0x020,,,,,,,,,,,,,,,,,,
19185287,962,-44,-195,52,-127168,-15351,171,391,-63,,,,0x018,,,,,,,,,,,,,,,,,,
19208493,962,-44,-195,52,-127168,-15351,193,390,1,,,,0x060,,,,,,,,,,,,,,,,,,
19264080,912,-65,-475,11707,-120404,-5875,193,390,1,,,,0x018,,,,,,,,,,,,,,,,,,
19307788,912,-65,-475,11707,-120404,-5875,190,400,75,,,,0x060,,,,,,,,,,,,,,,,,,
19342871,802,-49,-578,16703,-131280,-4567,190,400,75,,,,0x018,,,,,,,,,,,,,,,,,,
19407084,802,-49,-578,16703,-131280,-4567,163,391,147,,,,0x060,,,,,,,,,,,,,,,,,,
19423712,631,-32,-631,12919,-118846,3298,163,391,147,,,,0x018,,,,,,,,,,,,,,,,,,
19502274,577,-44,-793,3246,-95523,15968,163,391,147,,,,0x058,,,,,,,,,,,,,,,,,,
19504967,577,-44,-793,3246,-95523,15968,129,405,190,,,,0x020,,,,,,,,,,,,,,,,,,
19583095,499,-49,-791,1010,-114826,18427,129,405,190,,,,0x018,,,,,,,,,,,,,,,,,,
19604247,499,-49,-791,1010,-114826,18427,99,396,234,,,,0x060,,,,,,,,,,,,,,,,,,
19661875,332,-104,-1056,-18335,-64001,3985,99,396,234,,,,0x018,,,,,,,,,,,,,,,,,,
19703530,332,-104,-1056,-18335,-64001,3985,63,403,282,,,,0x060,,,,,,,,,,,,,,,,,,
19742709,291,-22,-906,-14546,-83930,4838,63,403,282,,,,0x018,,,,,,,,,,,,,,,,,,
19802819,291,-22,-906,-14546,-83930,4838,24,402,300,,,,0x060,,,,,,,,,,,,,,,,,,
19821495,178,-40,-946,-2375,-82328,-634,24,402,300,,,,0x018,,,,,,,,,,,,,,,,,,
19902098,52,-25,-955,-8645,-66206,-5092,4,397,318,,,,0x078,,,,,,,,,,,,,,,,,,
19980872,-61,-32,-1026,-22487,-66316,-258,4,397,318,,,,0x018,,,,,,,,,,,,,,,,,,
19999967,-61,-32,-1026,-22487,-66316,-258,-58,387,351,,,,0x060,,,,,,,,,,,,,,,,,,
20059646,-138,53,-956,-22023,-96906,9441,-58,387,351,,,,0x018,,,,,,,,,,,,,,,,,,
20099240,-138,53,-956,-22023,-96906,9441,-109,382,361,,,,0x020,,,,,,,,,,,,,,,,,,
20140476,-215,94,-910,-5814,-101976,7332,-109,382,361,,,,0x058,,,,,,,,,,,,,,,,,,
20198524,-215,94,-910,-5814,-101976,7332,-178,385,376,,,,0x020,,,,,,,,,,,,,,,,,,
20219261,-388,57,-850,7240,-99767,-201,-178,385,376,,,,0x058,,,,,,,,,,,,,,,,,,
20297813,-388,57,-850,7240,-99767,-201,-217,402,375,,,,0x020,,,,,,,,,,,,,,,,,,
20300088,-505,10,-862,10132,-78605,-5193,-217,402,375,,,,0x018,,,,,,,,,,,,,,,,,,
20378641,-615,8,-778,6667,-72143,-1605,-217,402,375,,,,0x058,,,,,,,,,,,,,,,,,,
20395685,-615,8,-778,6667,-72143,-1605,-274,396,372,,,,0x020,,,,,,,,,,,,,,,,,,
20457426,-673,17,-694,15723,-71430,1526,-274,396,372,,,,0x058,,,,,,,,,,,,,,,,,,
20494975,-673,17,-694,15723,-71430,1526,-313,411,349,,,,0x020,,,,,,,,,,,,,,,,,,
20538266,-769,-35,-677,20199,-70288,-2878,-313,411,349,,,,0x058,,,,,,,,,,,,,,,,,,
20594265,-769,-35,-677,20199,-70288,-2878,-355,415,334,,,,0x020,,,,,,,,,,,,,,,,,,
20617052,-822,-38,-652,7271,-71246,2765,-355,415,334,,,,0x058,,,,,,,,,,,,,,,,,,
20693547,-822,-38,-652,7271,-71246,2765,-403,409,309,,,,0x020,,,,,,,,,,,,,,,,,,
20697874,-823,9,-499,3425,-85233,8671,-403,409,309,,,,0x018,,,,,,,,,,,,,,,,,,
20776426,-912,8,-347,288,-72642,2073,-403,409,309,,,,0x058,,,,,,,,,,,,,,,,,,
20791421,-912,8,-347,288,-72642,2073,-424,423,288,,,,0x020,,,,,,,,,,,,,,,,,,
20855212,-953,-10,-342,3473,-49735,2471,-424,423,288,,,,0x058,,,,,,,,,,,,,,,,,,
20890710,-953,-10,-342,3473,-49735,2471,-454,409,274,,,,0x020,,,,,,,,,,,,,,,,,,
20936045,-980,-10,-267,-4978,-40595,783,-454,409,274,,,,0x058,,,,,,,,,,,,,,,,,,
20989990,-980,-10,-267,-4978,-40595,783,-468,406,256,,,,0x020,,,,,,,,,,,,,,,,,,
21014817,-951,0,-239,-6549,-42993,4773,-468,406,256,,,,0x058,,,,,,,,,,,,,,,,,,
21089268,-951,0,-239,-6549,-42993,4773,-483,399,240,,,,0x020,,,,,,,,,,,,,,,,,,
21095646,-1006,18,-129,-385,-40149,5648,-483,399,240,,,,0x018,,,,,,,,,,,,,,,,,,
21174201,-982,0,-179,-4725,-26355,10053,-483,399,240,,,,0x058,,,,,,,,,,,,,,,,,,
21187143,-982,0,-179,-4725,-26355,10053,-496,393,226,,,,0x020,,,,,,,,,,,,,,,,,,
21255032,-977,55,-86,-9533,-31941,7717,-496,393,226,,,,0x058,,,,,,,,,,,,,,,,,,
21286425,-977,55,-86,-9533,-31941,7717,-504,388,217,,,,0x020,,,,,,,,,,,,,,,,,,
21333815,-1018,29,-72,-8321,-24727,-2568,-504,388,217,,,,0x058,,,,,,,,,,,,,,,,,,
21385714,-1018,29,-72,-8321,-24727,-2568,-523,385,195,,,,0x020,,,,,,,,,,,,,,,,,,
21412591,-1027,47,-16,-12324,-44126,-4147,-523,385,195,,,,0x018,,,,,,,,,,,,,,,,,,
21484994,-1027,47,-16,-12324,-44126,-4147,-541,393,162,,,,0x060,,,,,,,,,,,,,,,,,,
21493421,-1041,31,54,-14997,-70367,-20269,-541,393,162,,,,0x018,,,,,,,,,,,,,,,,,,
21571975,-1053,110,135,-2139,-79476,-14420,-541,393,162,,,,0x058,,,,,,,,,,,,,,,,,,
21582870,-1053,110,135,-2139,-79476,-14420,-565,400,111,,,,0x020,,,,,,,,,,,,,,,,,,
21652808,-910,-107,317,-20050,-104431,-2957,-565,400,111,,,,0x058,,,,,,,,,,,,,,,,,,
21682156,-910,-107,317,-20050,-104431,-2957,-571,400,40,,,,0x020,,,,,,,,,,,,,,,,,,
21731592,-792,-60,396,-18602,-112455,-6724,-571,400,40,,,,0x058,,,,,,,,,,,,,,,,,,
21781436,-792,-60,396,-18602,-112455,-6724,-579,397,-19,,,,0x020,,,,,,,,,,,,,,,,,,
21810366,-792,-44,588,-5700,-108438,11344,-579,397,-19,,,,0x018,,,,,,,,,,,,,,,,,,
21880725,-792,-44,588,-5700,-108438,11344,-580,387,-96,,,,0x060,,,,,,,,,,,,,,,,,,
21891203,-721,-46,709,-8246,-106194,4886,-580,387,-96,,,,0x018,,,,,,,,,,,,,,,,,,
21969760,-621,-101,791,5586,-98581,-8023,-580,387,-96,,,,0x058,,,,,,,,,,,,,,,,,,
21978604,-621,-101,791,5586,-98581,-8023,-549,393,-142,,,,0x020,,,,,,,,,,,,,,,,,,
22050588,-451,-51,848,12604,-85728,-16590,-549,393,-142,,,,0x058,,,,,,,,,,,,,,,,,,
22077881,-451,-51,848,12604,-85728,-16590,-519,391,-192,,,,0x020,,,,,,,,,,,,,,,,,,
22129362,-440,19,955,-700,-89788,12263,-519,391,-192,,,,0x018,,,,,,,,,,,,,,,,,,
22177169,-440,19,955,-700,-89788,12263,-492,388,-247,,,,0x060,,,,,,,,,,,,,,,,,,
22208146,-264,-26,983,468,-86113,4165,-492,388,-247,,,,0x018,,,,,,,,,,,,,,,,,,
22276452,-264,-26,983,468,-86113,4165,-439,396,-265,,,,0x060,,,,,,,,,,,,,,,,,,
22288978,-207,-105,981,-8439,-71360,-15706,-439,396,-265,,,,0x018,,,,,,,,,,,,,,,,,,
22367533,-111,-61,1014,2585,-58191,-15386,-439,396,-265,,,,0x058,,,,,,,,,,,,,,,,,,
22374327,-111,-61,1014,2585,-58191,-15386,-420,396,-289,,,,0x020,,,,,,,,,,,,,,,,,,
22448369,-72,-12,1029,-516,-49612,463,-420,396,-289,,,,0x058,,,,,,,,,,,,,,,,,,
22473616,-72,-12,1029,-516,-49612,463,-384,403,-304,,,,0x020,,,,,,,,,,,,,,,,,,
22527142,14,-56,1022,-2839,-46698,-9384,-384,403,-304,,,,0x018,,,,,,,,,,,,,,,,,,
22572895,14,-56,1022,-2839,-46698,-9384,-372,387,-315,,,,0x060,,,,,,,,,,,,,,,,,,
22605925,14,-56,1022,3053,-32506,-1658,-372,387,-315,,,,0x010,,,,,,,,,,,,,,,,,,
22608300,29,-50,1029,3053,-32506,-1658,-372,387,-315,,,,0x008,,,,,,,,,,,,,,,,,,
22670136,29,-50,1029,3053,-32506,-1658,-349,390,-330,,,,0x060,,,,,,,,,,,,,,,,,,
22686764,45,-51,1035,7376,-26617,-1071,-349,390,-330,,,,0x018,,,,,,,,,,,,,,,,,,
22765323,122,-64,1018,6693,-25182,-5823,-349,390,-330,,,,0x058,,,,,,,,,,,,,,,,,,
22770067,122,-64,1018,6693,-25182,-5823,-340,394,-333,,,,0x020,,,,,,,,,,,,,,,,,,
22846153,153,-15,1017,14227,-20667,5639,-340,394,-333,,,,0x058,,,,,,,,,,,,,,,,,,
22869347,153,-15,1017,14227,-20667,5639,-324,378,-330,,,,0x020,,,,,,,,,,,,,,,,,,
22924926,164,-20,992,10836,-15780,2375,-324,378,-330,,,,0x018,,,,,,,,,,,,,,,,,,
22968629,164,-20,992,10836,-15780,2375,-312,376,-342,,,,0x060,,,,,,,,,,,,,,,,,,
23005759,192,-8,984,5040,-9550,-7249,-312,376,-342,,,,0x018,,,,,,,,,,,,,,,,,,
23065867,192,-8,984,5040,-9550,-7249,-310,382,-345,,,,0x060,,,,,,,,,,,,,,,,,,
23084544,222,-4,1007,3272,-10416,-1754,-310,382,-345,,,,0x018,,,,,,,,,,,,,,,,,,
23163098,208,40,1007,12932,-9467,12267,-310,382,-345,,,,0x058,,,,,,,,,,,,,,,,,,
23165791,208,40,1007,12932,-9467,12267,-307,366,-352,,,,0x020,,,,,,,,,,,,,,,,,,
23243925,186,40,991,6230,-7004,4900,-307,366,-352,,,,0x018,,,,,,,,,,,,,,,,,,
23265075,186,40,991,6230,-7004,4900,-291,369,-346,,,,0x060,,,,,,,,,,,,,,,,,,
23322708,206,44,990,-3163,-6068,-4418,-291,369,-346,,,,0x018,,,,,,,,,,,,,,,,,,
23364364,206,44,990,-3163,-6068,-4418,-301,360,-364,,,,0x060,,,,,,,,,,,,,,,,,,
23403541,240,41,1011,-48,-2550,5836,-301,360,-364,,,,0x018,,,,,,,,,,,,,,,,,,
23461593,240,41,1011,-48,-2550,5836,-303,361,-357,,,,0x060,,,,,,,,,,,,,,,,,,
23482322,214,9,999,-2078,153,1500,-303,361,-357,,,,0x018,,,,,,,,,,,,,,,,,,
23560883,214,9,999,-1732,-52,2436,-301,370,-349,,,,0x070,,,,,,,,,,,,,,,,,,
23563477,223,-3,986,-1732,-52,2436,-301,370,-349,,,,0x008,,,,,,,,,,,,,,,,,,
23641713,213,2,998,-336,2646,-1553,-301,370,-349,,,,0x018,,,,,,,,,,,,,,,,,,
23660815,213,2,998,-336,2646,-1553,-292,369,-354,,,,0x060,,,,,,,,,,,,,,,,,,
23720493,218,15,1008,1233,1850,1190,-292,369,-354,,,,0x018,,,,,,,,,,,,,,,,,,
23760095,218,15,1008,1233,1850,1190,-306,366,-348,,,,0x060,,,,,,,,,,,,,,,,,,
23801326,213,-7,997,2345,1456,1894,-306,366,-348,,,,0x018,,,,,,,,,,,,,,,,,,
23857326,213,-7,997,2345,1456,1894,-297,361,-349,,,,0x060,,,,,,,,,,,,,,,,,,
23880106,199,37,990,5044,953,-3325,-297,361,-349,,,,0x018,,,,,,,,,,,,,,,,,,
23956608,199,37,990,5044,953,-3325,-300,363,-346,,,,0x020,,,,,,,,,,,,,,,,,,
23958883,211,54,980,2607,608,-923,-300,363,-346,,,,0x058,,,,,,,,,,,,,,,,,,
24039479,226,18,997,-1583,-332,2983,-300,363,-346,,,,0x018,,,,,,,,,,,,,,,,,,
24056524,226,18,997,-1583,-332,2983,-303,357,-342,,,,0x020,,,,,,,,,,,,,,,,,,
24118266,205,13,1002,-1295,-61,3635,-303,357,-342,,,,0x058,,,,,,,,,,,,,,,,,,
24155813,205,13,1002,-1295,-61,3635,-292,367,-339,,,,0x020,,,,,,,,,,,,,,,,,,
24199103,225,0,1000,-1614,-2170,-1583,-292,367,-339,,,,0x058,,,,,,,,,,,,,,,,,,
24253049,225,0,1000,-1614,-2170,-1583,-300,360,-358,,,,0x020,,,,,,,,,,,,,,,,,,
24277885,212,27,989,1942,-411,-424,-300,360,-358,,,,0x058,,,,,,,,,,,,,,,,,,
24352329,212,27,989,1942,-411,-424,-291,354,-345,,,,0x020,,,,,,,,,,,,,,,,,,
24356657,215,45,984,1470,643,446,-291,354,-345,,,,0x018,,,,,,,,,,,,,,,,,,
24437264,222,0,994,-1977,805,1850,-291,354,-345,,,,0x058,,,,,,,,,,,,,,,,,,
24452260,222,0,994,-1977,805,1850,-292,366,-340,,,,0x020,,,,,,,,,,,,,,,,,,
24516049,214,3,1002,319,2572,140,-292,366,-340,,,,0x058,,,,,,,,,,,,,,,,,,
24549492,214,3,1002,319,2572,140,-304,373,-340,,,,0x020,,,,,,,,,,,,,,,,,,
24596879,197,30,1006,1754,367,-280,-304,373,-340,,,,0x058,,,,,,,,,,,,,,,,,,
24648777,197,30,1006,1754,367,-280,-301,366,-343,,,,0x020,,,,,,,,,,,,,,,,,,
24675665,206,22,999,459,-1163,840,-301,366,-343,,,,0x058,,,,,,,,,,,,,,,,,,
24748064,206,22,999,459,-1163,840,-292,367,-352,,,,0x020,,,,,,,,,,,,,,,,,,
24754440,214,11,982,966,-1325,1789,-292,367,-352,,,,0x018,,,,,,,,,,,,,,,,,,
24835043,209,35,987,1299,-590,2139,-292,367,-352,,,,0x058,,,,,,,,,,,,,,,,,,
24847987,209,35,987,1299,-590,2139,-298,352,-343,,,,0x020,,,,,,,,,,,,,,,,,,
24913826,214,11,1005,-2069,-1010,809,-298,352,-343,,,,0x058,,,,,,,,,,,,,,,,,,
24945222,214,11,1005,-2069,-1010,809,-303,360,-345,,,,0x020,,,,,,,,,,,,,,,,,,
24994666,221,3,1004,-564,-1798,1706,-303,360,-345,,,,0x058,,,,,,,,,,,,,,,,,,
25044515,221,3,1004,-564,-1798,1706,-303,360,-348,,,,0x020,,,,,,,,,,,,,,,,,,
25073442,226,22,988,1693,-1198,577,-303,360,-348,,,,0x018,,,,,,,,,,,,,,,,,,
