#Format version: 1.0
time[us],accX[mg],accY[mg],accZ[mg],gyroX[mdps],gyroY[mdps],gyroZ[mdps],magnX[mG],magnY[mG],magnZ[mG],press[hPa],temp[C],hum[%RH],newData,interrupts,fsm1,fsm2,fsm3,fsm4,fsm5,fsm6,fsm7,fsm8,fsm9,fsm10,fsm11,fsm12,fsm13,fsm14,fsm15,fsm16,
3255626130,-28,-46,1019,752,-380,525,-15,235,-306,,,,0x078,,,,,,,,,,,,,,,,,,
3255678036,-28,-46,1019,752,-380,525,-19,244,-312,,,,0x060,,,,,,,,,,,,,,,,,,
3255704916,-27,-32,1005,940,-818,853,-19,244,-312,,,,0x018,,,,,,,,,,,,,,,,,,
3255777326,-27,-32,1005,940,-818,853,-13,244,-303,,,,0x060,,,,,,,,,,,,,,,,,,
3255783703,-20,-45,1027,651,-2607,-113,-13,244,-303,,,,0x018,,,,,,,,,,,,,,,,,,
3255864302,-19,-33,1027,1041,-861,1478,-13,244,-303,,,,0x018,,,,,,,,,,,,,,,,,,
3255875205,-19,-33,1027,1041,-861,1478,-22,244,-303,,,,0x060,,,,,,,,,,,,,,,,,,
3255943081,-24,-36,1022,1618,853,835,-22,244,-303,,,,0x018,,,,,,,,,,,,,,,,,,
3255974485,-24,-36,1022,1618,853,835,-28,247,-312,,,,0x060,,,,,,,,,,,,,,,,,,
3256021867,-24,-34,1013,140,1198,638,-28,247,-312,,,,0x018,,,,,,,,,,,,,,,,,,
3256073775,-24,-34,1013,140,1198,638,-21,232,-300,,,,0x060,,,,,,,,,,,,,,,,,,
3256102706,-25,-34,1025,336,861,240,-21,232,-300,,,,0x018,,,,,,,,,,,,,,,,,,
3256173063,-25,-34,1025,336,861,240,-15,246,-306,,,,0x060,,,,,,,,,,,,,,,,,,
3256181492,-34,-33,1000,153,1640,468,-15,246,-306,,,,0x018,,,,,,,,,,,,,,,,,,
3256262089,-29,-39,1010,-673,-262,-262,-15,246,-306,,,,0x018,,,,,,,,,,,,,,,,,,
3256270933,-29,-39,1010,-673,-262,-262,-22,255,-312,,,,0x020,,,,,,,,,,,,,,,,,,
3256340877,-23,-48,1021,122,-568,-166,-22,255,-312,,,,0x058,,,,,,,,,,,,,,,,,,
3256370225,-23,-48,1021,122,-568,-166,-22,241,-310,,,,0x020,,,,,,,,,,,,,,,,,,
3256419665,-24,-29,1020,634,-61,1111,-22,241,-310,,,,0x058,,,,,,,,,,,,,,,,,,
3256469513,-24,-29,1020,634,-61,1111,-24,246,-315,,,,0x020,,,,,,,,,,,,,,,,,,
3256500501,-27,-38,1012,-118,100,555,-24,246,-315,,,,0x058,,,,,,,,,,,,,,,,,,
3256568797,-27,-38,1012,-118,100,555,-27,247,-313,,,,0x020,,,,,,,,,,,,,,,,,,
3256579283,-29,-40,1021,-1089,-341,380,-27,247,-313,,,,0x058,,,,,,,,,,,,,,,,,,
3256657830,-29,-41,1013,-481,205,498,-27,247,-313,,,,0x018,,,,,,,,,,,,,,,,,,
3256666672,-29,-41,1013,-481,205,498,-22,249,-318,,,,0x020,,,,,,,,,,,,,,,,,,
3256738663,-23,-46,1025,-363,-288,367,-22,249,-318,,,,0x058,,,,,,,,,,,,,,,,,,
3256765959,-23,-46,1025,-363,-288,367,-22,249,-310,,,,0x020,,,,,,,,,,,,,,,,,,
3256817447,-28,-41,1011,-61,380,455,-22,249,-310,,,,0x058,,,,,,,,,,,,,,,,,,
3256865242,-28,-41,1011,-61,380,455,-22,243,-309,,,,0x020,,,,,,,,,,,,,,,,,,
3256896230,-28,-36,1014,306,-170,437,-22,243,-309,,,,0x058,,,,,,,,,,,,,,,,,,
3256962478,-28,-36,1014,306,-170,437,-25,247,-310,,,,0x020,,,,,,,,,,,,,,,,,,
3256977055,-30,-46,1004,275,-245,-48,-25,247,-310,,,,0x018,,,,,,,,,,,,,,,,,,
3257055616,-23,-45,1022,608,-1509,288,-25,247,-310,,,,0x058,,,,,,,,,,,,,,,,,,
3257062409,-23,-45,1022,608,-1509,288,-31,241,-306,,,,0x020,,,,,,,,,,,,,,,,,,
3257136449,-22,-42,1022,542,-717,608,-31,241,-306,,,,0x058,,,,,,,,,,,,,,,,,,
3257161692,-22,-42,1022,542,-717,608,-21,244,-304,,,,0x020,,,,,,,,,,,,,,,,,,
3257215232,-24,-39,1020,870,-319,603,-21,244,-304,,,,0x058,,,,,,,,,,,,,,,,,,
3257260977,-24,-39,1020,870,-319,603,-19,247,-301,,,,0x020,,,,,,,,,,,,,,,,,,
3257294015,-21,-37,1021,-406,-105,459,-19,247,-301,,,,0x058,,,,,,,,,,,,,,,,,,
3257358217,-21,-37,1021,-406,-105,459,-18,240,-307,,,,0x020,,,,,,,,,,,,,,,,,,
3257374844,-27,-46,1013,4,389,-26,-18,240,-307,,,,0x018,,,,,,,,,,,,,,,,,,
3257453398,-21,-41,1020,-363,-441,122,-18,240,-307,,,,0x058,,,,,,,,,,,,,,,,,,
3257458141,-21,-41,1020,-363,-441,122,-28,240,-318,,,,0x020,,,,,,,,,,,,,,,,,,
3257532180,-22,-44,1014,-8,223,188,-28,240,-318,,,,0x058,,,,,,,,,,,,,,,,,,
3257557426,-22,-44,1014,-8,223,188,-16,240,-300,,,,0x020,,,,,,,,,,,,,,,,,,
3257613017,-23,-47,1015,21,249,236,-16,240,-300,,,,0x058,,,,,,,,,,,,,,,,,,
3257654666,-23,-47,1015,21,249,236,-27,249,-304,,,,0x020,,,,,,,,,,,,,,,,,,
3257691793,-27,-44,1009,2218,809,1137,-27,249,-304,,,,0x018,,,,,,,,,,,,,,,,,,
3257753947,-27,-44,1009,2218,809,1137,-19,243,-310,,,,0x060,,,,,,,,,,,,,,,,,,
3257770576,-27,-44,1009,5184,415,1194,-19,243,-310,,,,0x010,,,,,,,,,,,,,,,,,,
3257772951,-27,-28,1019,5184,415,1194,-19,243,-310,,,,0x008,,,,,,,,,,,,,,,,,,
3257851191,-28,-38,997,8540,398,1255,-19,243,-310,,,,0x058,,,,,,,,,,,,,,,,,,
3257853884,-28,-38,997,8540,398,1255,-19,235,-307,,,,0x020,,,,,,,,,,,,,,,,,,
3257929977,-26,-9,1022,12035,-2480,2301,-19,235,-307,,,,0x058,,,,,,,,,,,,,,,,,,
3257951124,-26,-9,1022,12035,-2480,2301,-19,240,-298,,,,0x020,,,,,,,,,,,,,,,,,,
3258010820,-32,28,1007,16270,468,-341,-19,240,-298,,,,0x058,,,,,,,,,,,,,,,,,,
3258050419,-32,28,1007,16270,468,-341,-22,225,-303,,,,0x020,,,,,,,,,,,,,,,,,,
3258089598,-27,51,1017,26993,2161,-5149,-22,225,-303,,,,0x018,,,,,,,,,,,,,,,,,,
3258149706,-27,51,1017,26993,2161,-5149,-21,181,-309,,,,0x060,,,,,,,,,,,,,,,,,,
3258168382,-32,128,1015,51493,2314,-9966,-21,181,-309,,,,0x018,,,,,,,,,,,,,,,,,,
3258248988,-39,198,1014,72113,1610,-17583,-27,144,-285,,,,0x078,,,,,,,,,,,,,,,,,,
3258327771,-32,250,980,73364,415,-19525,-27,144,-285,,,,0x058,,,,,,,,,,,,,,,,,,
3258346868,-32,250,980,73364,415,-19525,-31,111,-264,,,,0x020,,,,,,,,,,,,,,,,,,
3258408606,-40,379,943,47718,-3259,-12932,-31,111,-264,,,,0x058,,,,,,,,,,,,,,,,,,
3258446158,-40,379,943,47718,-3259,-12932,-30,85,-249,,,,0x020,,,,,,,,,,,,,,,,,,
3258487387,-44,439,939,50277,376,-10766,-30,85,-249,,,,0x018,,,,,,,,,,,,,,,,,,
3258545440,-44,439,939,50277,376,-10766,-43,49,-222,,,,0x060,,,,,,,,,,,,,,,,,,
3258566171,-68,495,868,66670,9983,-6641,-43,49,-222,,,,0x018,,,,,,,,,,,,,,,,,,
3258644730,-68,495,868,66670,9983,-6641,-45,27,-196,,,,0x060,,,,,,,,,,,,,,,,,,
3258647005,-97,575,826,70822,10626,-6606,-45,27,-196,,,,0x018,,,,,,,,,,,,,,,,,,
3258725566,-105,666,731,64338,8732,-5088,-45,27,-196,,,,0x058,,,,,,,,,,,,,,,,,,
3258742610,-105,666,731,64338,8732,-5088,-46,-6,-168,,,,0x020,,,,,,,,,,,,,,,,,,
3258804339,-114,682,726,60278,4305,555,-46,-6,-168,,,,0x018,,,,,,,,,,,,,,,,,,
3258841892,-114,682,726,60278,4305,555,-45,-9,-136,,,,0x060,,,,,,,,,,,,,,,,,,
3258885174,-103,837,631,63533,10281,4825,-45,-9,-136,,,,0x018,,,,,,,,,,,,,,,,,,
3258941181,-103,837,631,63533,10281,4825,-39,-27,-108,,,,0x060,,,,,,,,,,,,,,,,,,
3258963960,-118,853,523,73836,10548,-5438,-39,-27,-108,,,,0x018,,,,,,,,,,,,,,,,,,
3259040472,-118,853,523,73836,10548,-5438,-54,-48,-64,,,,0x060,,,,,,,,,,,,,,,,,,
3259042747,-118,853,523,74221,6221,-11121,-54,-48,-64,,,,0x010,,,,,,,,,,,,,,,,,,
3259045123,-133,827,475,74221,6221,-11121,-54,-48,-64,,,,0x008,,,,,,,,,,,,,,,,,,
3259123367,-140,829,401,84656,12621,-8526,-54,-48,-64,,,,0x058,,,,,,,,,,,,,,,,,,
3259138361,-140,829,401,84656,12621,-8526,-61,-52,-15,,,,0x020,,,,,,,,,,,,,,,,,,
3259202140,-145,939,242,60125,12088,5381,-61,-52,-15,,,,0x018,,,,,,,,,,,,,,,,,,
3259237643,-145,939,242,60125,12088,5381,-54,-48,1,,,,0x060,,,,,,,,,,,,,,,,,,
3259282975,-146,966,258,45683,-1855,10443,-54,-48,1,,,,0x018,,,,,,,,,,,,,,,,,,
3259336932,-146,966,258,45683,-1855,10443,-37,-48,27,,,,0x060,,,,,,,,,,,,,,,,,,
3259361761,-136,959,195,41190,5796,12398,-37,-48,27,,,,0x018,,,,,,,,,,,,,,,,,,
3259434173,-136,959,195,41190,5796,12398,-36,-34,48,,,,0x060,,,,,,,,,,,,,,,,,,
3259440550,-109,987,111,43811,12801,13768,-36,-34,48,,,,0x018,,,,,,,,,,,,,,,,,,
3259521146,-88,1068,0,32134,9353,9331,-36,-34,48,,,,0x058,,,,,,,,,,,,,,,,,,
3259534090,-88,1068,0,32134,9353,9331,-30,-33,57,,,,0x020,,,,,,,,,,,,,,,,,,
3259599925,-105,973,44,17806,-3482,-599,-30,-33,57,,,,0x018,,,,,,,,,,,,,,,,,,
3259633381,-105,973,44,17806,-3482,-599,-31,-30,67,,,,0x060,,,,,,,,,,,,,,,,,,
3259680764,-92,988,35,16432,-1802,1653,-31,-30,67,,,,0x018,,,,,,,,,,,,,,,,,,
3259730618,-92,988,35,16432,-1802,1653,-39,-28,81,,,,0x060,,,,,,,,,,,,,,,,,,
3259759546,-82,1020,6,5096,420,2069,-39,-28,81,,,,0x018,,,,,,,,,,,,,,,,,,
3259829900,-82,1020,6,5096,420,2069,-42,-36,69,,,,0x060,,,,,,,,,,,,,,,,,,
3259838328,-85,1003,-6,-3622,1684,-1531,-42,-36,69,,,,0x018,,,,,,,,,,,,,,,,,,
3259918928,-105,963,27,9218,1478,-2047,-42,-36,69,,,,0x018,,,,,,,,,,,,,,,,,,
3259929830,-105,963,27,9218,1478,-2047,-30,-42,76,,,,0x060,,,,,,,,,,,,,,,,,,
3259997716,-103,979,-1,-2253,1658,-1028,-30,-42,76,,,,0x018,,,,,,,,,,,,,,,,,,
3260029113,-103,979,-1,-2253,1658,-1028,-28,-28,72,,,,0x060,,,,,,,,,,,,,,,,,,
3260076492,-102,980,17,-9616,-1430,1885,-28,-28,72,,,,0x018,,,,,,,,,,,,,,,,,,
3260126338,-102,980,17,-9616,-1430,1885,-33,-28,70,,,,0x020,,,,,,,,,,,,,,,,,,
3260157328,-94,996,38,-4865,-2751,2769,-33,-28,70,,,,0x058,,,,,,,,,,,,,,,,,,
3260225626,-94,996,38,-4865,-2751,2769,-30,-39,70,,,,0x020,,,,,,,,,,,,,,,,,,
3260236112,-82,988,9,-6965,-1640,1194,-30,-39,70,,,,0x058,,,,,,,,,,,,,,,,,,
3260316713,-81,970,112,-19617,-7402,3801,-30,-39,70,,,,0x018,,,,,,,,,,,,,,,,,,
3260325557,-81,970,112,-19617,-7402,3801,-28,-39,48,,,,0x020,,,,,,,,,,,,,,,,,,
3260395497,-75,984,133,-36071,-3758,7783,-28,-39,48,,,,0x058,,,,,,,,,,,,,,,,,,
3260422792,-75,984,133,-36071,-3758,7783,-22,-34,27,,,,0x020,,,,,,,,,,,,,,,,,,
3260474281,-77,1010,148,-41177,-1802,4733,-22,-34,27,,,,0x058,,,,,,,,,,,,,,,,,,
3260522077,-77,1010,148,-41177,-1802,4733,-28,-43,13,,,,0x020,,,,,,,,,,,,,,,,,,
3260555116,-68,931,188,-34256,-3342,-1701,-28,-43,13,,,,0x058,,,,,,,,,,,,,,,,,,
3260621368,-68,931,188,-34256,-3342,-1701,-22,-36,-19,,,,0x020,,,,,,,,,,,,,,,,,,
3260633895,-64,971,281,-47337,-3605,5188,-22,-36,-19,,,,0x018,,,,,,,,,,,,,,,,,,
3260712452,-64,971,281,-53138,1710,5411,-22,-36,-19,,,,0x050,,,,,,,,,,,,,,,,,,
3260714827,-62,997,333,-53138,1710,5411,-22,-36,-19,,,,0x008,,,,,,,,,,,,,,,,,,
3260719254,-62,997,333,-53138,1710,5411,-25,-30,-40,,,,0x020,,,,,,,,,,,,,,,,,,
3260793291,-61,879,450,-49218,-3368,-2821,-25,-30,-40,,,,0x058,,,,,,,,,,,,,,,,,,
3260818536,-61,879,450,-49218,-3368,-2821,-22,-22,-82,,,,0x020,,,,,,,,,,,,,,,,,,
3260872077,-34,836,469,-50850,-2848,-3788,-22,-22,-82,,,,0x058,,,,,,,,,,,,,,,,,,
3260917828,-34,836,469,-50850,-2848,-3788,-24,-18,-114,,,,0x020,,,,,,,,,,,,,,,,,,
3260952917,-59,938,522,-61639,1745,2712,-24,-18,-114,,,,0x058,,,,,,,,,,,,,,,,,,
3261017119,-59,938,522,-61639,1745,2712,-19,-4,-145,,,,0x020,,,,,,,,,,,,,,,,,,
3261031696,-66,742,687,-58038,4681,-743,-19,-4,-145,,,,0x018,,,,,,,,,,,,,,,,,,
3261110256,-75,652,721,-94066,7533,14039,-19,-4,-145,,,,0x058,,,,,,,,,,,,,,,,,,
3261114999,-75,652,721,-94066,7533,14039,-22,22,-189,,,,0x020,,,,,,,,,,,,,,,,,,
3261191087,-51,620,829,-127903,3556,30485,-22,22,-189,,,,0x058,,,,,,,,,,,,,,,,,,
3261214281,-51,620,829,-127903,3556,30485,-12,93,-253,,,,0x020,,,,,,,,,,,,,,,,,,
3261269873,-50,522,834,-104221,8360,21962,-12,93,-253,,,,0x058,,,,,,,,,,,,,,,,,,
3261313573,-50,522,834,-104221,8360,21962,-13,126,-264,,,,0x020,,,,,,,,,,,,,,,,,,
3261348654,-39,346,942,-63100,1925,3005,-13,126,-264,,,,0x058,,,,,,,,,,,,,,,,,,
3261412853,-39,346,942,-63100,1925,3005,-18,147,-280,,,,0x020,,,,,,,,,,,,,,,,,,
3261429481,-39,290,953,-62650,1141,1015,-18,147,-280,,,,0x018,,,,,,,,,,,,,,,,,,
3261508036,-50,228,1003,-62321,616,-3198,-18,147,-280,,,,0x058,,,,,,,,,,,,,,,,,,
3261510730,-50,228,1003,-62321,616,-3198,-16,190,-298,,,,0x020,,,,,,,,,,,,,,,,,,
3261588873,-34,24,973,-85715,901,-11991,-16,190,-298,,,,0x058,,,,,,,,,,,,,,,,,,
3261610019,-34,24,973,-85715,901,-11991,-22,226,-312,,,,0x020,,,,,,,,,,,,,,,,,,
3261667656,-54,2,999,-57430,-1968,-4598,-22,226,-312,,,,0x058,,,,,,,,,,,,,,,,,,
3261709305,-54,2,999,-57430,-1968,-4598,-13,253,-309,,,,0x020,,,,,,,,,,,,,,,,,,
3261746431,-14,-59,1045,-32672,-14288,-2563,-13,253,-309,,,,0x018,,,,,,,,,,,,,,,,,,
3261808587,-14,-59,1045,-32672,-14288,-2563,-22,265,-303,,,,0x060,,,,,,,,,,,,,,,,,,
3261827266,1,-76,1051,-30638,-10793,-2038,-22,265,-303,,,,0x018,,,,,,,,,,,,,,,,,,
3261905828,-7,-101,991,-29076,-3933,-2966,-15,268,-301,,,,0x078,,,,,,,,,,,,,,,,,,
3261986655,9,-160,1012,-10696,-2384,-3123,-15,268,-301,,,,0x058,,,,,,,,,,,,,,,,,,
3262005749,9,-160,1012,-10696,-2384,-3123,-7,273,-304,,,,0x020,,,,,,,,,,,,,,,,,,
3262065437,29,-155,1026,520,-3005,-1719,-7,273,-304,,,,0x058,,,,,,,,,,,,,,,,,,
3262105031,29,-155,1026,520,-3005,-1719,-10,274,-304,,,,0x020,,,,,,,,,,,,,,,,,,
3262144213,10,-127,990,2870,-1942,-988,-10,274,-304,,,,0x018,,,,,,,,,,,,,,,,,,
3262204321,10,-127,990,2870,-1942,-988,-4,279,-304,,,,0x060,,,,,,,,,,,,,,,,,,
3262225047,16,-149,994,6448,-2891,-2441,-4,279,-304,,,,0x018,,,,,,,,,,,,,,,,,,
3262301556,16,-149,994,6448,-2891,-2441,-6,273,-300,,,,0x060,,,,,,,,,,,,,,,,,,
3262303831,23,-131,1019,1750,-4628,-297,-6,273,-300,,,,0x018,,,,,,,,,,,,,,,,,,
3262384438,21,-122,1007,5477,-1732,415,-6,273,-300,,,,0x058,,,,,,,,,,,,,,,,,,
3262401482,21,-122,1007,5477,-1732,415,0,270,-295,,,,0x020,,,,,,,,,,,,,,,,,,
3262463216,29,-129,1035,3823,-1561,358,0,270,-295,,,,0x018,,,,,,,,,,,,,,,,,,
3262500772,29,-129,1035,3823,-1561,358,-4,268,-301,,,,0x060,,,,,,,,,,,,,,,,,,
3262542002,29,-129,1035,1942,1680,2152,-4,268,-301,,,,0x010,,,,,,,,,,,,,,,,,,
3262544377,19,-96,1010,1942,1680,2152,-4,268,-301,,,,0x008,,,,,,,,,,,,,,,,,,
3262600068,19,-96,1010,1942,1680,2152,-10,264,-304,,,,0x060,,,,,,,,,,,,,,,,,,
3262622845,12,-93,996,2419,2086,958,-10,264,-304,,,,0x018,,,,,,,,,,,,,,,,,,
3262697300,12,-93,996,2419,2086,958,-4,262,-309,,,,0x060,,,,,,,,,,,,,,,,,,
3262701627,14,-119,1024,2366,1185,-682,-4,262,-309,,,,0x018,,,,,,,,,,,,,,,,,,
3262782236,13,-110,1019,2633,5827,485,-4,262,-309,,,,0x058,,,,,,,,,,,,,,,,,,
3262797231,13,-110,1019,2633,5827,485,-10,264,-306,,,,0x020,,,,,,,,,,,,,,,,,,
3262861016,-1,-120,1020,253,12731,1666,-10,264,-306,,,,0x018,,,,,,,,,,,,,,,,,,
3262896521,-1,-120,1020,253,12731,1666,-15,261,-306,,,,0x060,,,,,,,,,,,,,,,,,,
3262939803,-19,-106,1037,844,12250,3605,-15,261,-306,,,,0x018,,,,,,,,,,,,,,,,,,
3262995808,-19,-106,1037,844,12250,3605,-30,264,-315,,,,0x060,,,,,,,,,,,,,,,,,,
3263020637,-42,-90,1045,9161,19814,5018,-30,264,-315,,,,0x018,,,,,,,,,,,,,,,,,,
3263093040,-42,-90,1045,9161,19814,5018,-48,258,-324,,,,0x060,,,,,,,,,,,,,,,,,,
3263099416,-93,-69,1034,8474,36290,5070,-48,258,-324,,,,0x018,,,,,,,,,,,,,,,,,,
3263180027,-150,-81,995,7691,50347,2620,-48,258,-324,,,,0x058,,,,,,,,,,,,,,,,,,
3263192972,-150,-81,995,7691,50347,2620,-87,258,-328,,,,0x020,,,,,,,,,,,,,,,,,,
3263258806,-214,-61,1002,7791,46904,3316,-87,258,-328,,,,0x018,,,,,,,,,,,,,,,,,,
3263292260,-214,-61,1002,7791,46904,3316,-112,247,-339,,,,0x060,,,,,,,,,,,,,,,,,,
3263337587,-285,-59,1014,2104,54630,1098,-112,247,-339,,,,0x018,,,,,,,,,,,,,,,,,,
3263389491,-285,-59,1014,2104,54630,1098,-156,253,-346,,,,0x060,,,,,,,,,,,,,,,,,,
3263418420,-371,-58,952,-5241,69623,-3504,-156,253,-346,,,,0x018,,,,,,,,,,,,,,,,,,
3263488779,-371,-58,952,-5241,69623,-3504,-199,259,-357,,,,0x060,,,,,,,,,,,,,,,,,,
3263497206,-464,-58,857,-5530,71671,-3565,-199,259,-357,,,,0x018,,,,,,,,,,,,,,,,,,
3263577806,-531,-62,847,5145,59648,1063,-199,259,-357,,,,0x018,,,,,,,,,,,,,,,,,,
3263588709,-531,-62,847,5145,59648,1063,-235,250,-358,,,,0x060,,,,,,,,,,,,,,,,,,
3263656590,-599,-51,846,1815,60226,-144,-235,250,-358,,,,0x018,,,,,,,,,,,,,,,,,,
3263687992,-599,-51,846,1815,60226,-144,-280,246,-349,,,,0x060,,,,,,,,,,,,,,,,,,
3263735374,-666,-49,746,-1312,74856,568,-280,246,-349,,,,0x018,,,,,,,,,,,,,,,,,,
3263785225,-666,-49,746,-1312,74856,568,-334,250,-343,,,,0x060,,,,,,,,,,,,,,,,,,
3263816206,-743,-93,619,-8553,74904,-1653,-334,250,-343,,,,0x018,,,,,,,,,,,,,,,,,,
3263884507,-743,-93,619,-8553,74904,-1653,-369,262,-321,,,,0x020,,,,,,,,,,,,,,,,,,
3263894993,-797,-106,612,-9051,64343,1137,-369,262,-321,,,,0x058,,,,,,,,,,,,,,,,,,
3263973540,-843,-93,531,-4733,64811,6881,-369,262,-321,,,,0x018,,,,,,,,,,,,,,,,,,
3263984434,-843,-93,531,-4733,64811,6881,-400,264,-310,,,,0x020,,,,,,,,,,,,,,,,,,
3264054378,-885,-67,419,-2406,68145,8859,-400,264,-310,,,,0x058,,,,,,,,,,,,,,,,,,
3264081674,-885,-67,419,-2406,68145,8859,-442,256,-282,,,,0x020,,,,,,,,,,,,,,,,,,
3264133164,-928,-53,332,1098,66136,7577,-442,256,-282,,,,0x058,,,,,,,,,,,,,,,,,,
3264180963,-928,-53,332,1098,66136,7577,-487,249,-259,,,,0x020,,,,,,,,,,,,,,,,,,
3264211949,-928,-53,332,3508,58156,9047,-487,249,-259,,,,0x050,,,,,,,,,,,,,,,,,,
3264214325,-953,-73,269,3508,58156,9047,-487,249,-259,,,,0x008,,,,,,,,,,,,,,,,,,
3264280261,-953,-73,269,3508,58156,9047,-501,237,-238,,,,0x020,,,,,,,,,,,,,,,,,,
3264292787,-978,-11,178,8920,53025,13562,-501,237,-238,,,,0x058,,,,,,,,,,,,,,,,,,
3264371331,-992,-14,164,5976,44559,7787,-501,237,-238,,,,0x018,,,,,,,,,,,,,,,,,,
3264380176,-992,-14,164,5976,44559,7787,-517,237,-208,,,,0x020,,,,,,,,,,,,,,,,,,
3264452170,-997,13,109,4996,41243,5219,-517,237,-208,,,,0x058,,,,,,,,,,,,,,,,,,
3264477417,-997,13,109,4996,41243,5219,-532,241,-190,,,,0x020,,,,,,,,,,,,,,,,,,
3264530957,-999,-24,-4,-6103,35564,-564,-532,241,-190,,,,0x058,,,,,,,,,,,,,,,,,,
3264576704,-999,-24,-4,-6103,35564,-564,-541,234,-177,,,,0x020,,,,,,,,,,,,,,,,,,
3264609740,-1009,8,-24,-2117,24653,2187,-541,234,-177,,,,0x058,,,,,,,,,,,,,,,,,,
3264675985,-1009,8,-24,-2117,24653,2187,-547,244,-168,,,,0x020,,,,,,,,,,,,,,,,,,
3264690562,-1008,-19,-23,-5070,13107,-2174,-547,244,-168,,,,0x018,,,,,,,,,,,,,,,,,,
3264769123,-1009,0,-9,-1833,6873,507,-547,244,-168,,,,0x058,,,,,,,,,,,,,,,,,,
3264775916,-1009,0,-9,-1833,6873,507,-552,241,-171,,,,0x020,,,,,,,,,,,,,,,,,,
3264849958,-994,-12,-20,-437,2655,-651,-552,241,-171,,,,0x058,,,,,,,,,,,,,,,,,,
3264873154,-994,-12,-20,-437,2655,-651,-555,246,-157,,,,0x020,,,,,,,,,,,,,,,,,,
3264928740,-988,-3,-43,-1015,-1120,-363,-555,246,-157,,,,0x058,,,,,,,,,,,,,,,,,,
3264972435,-988,-3,-43,-1015,-1120,-363,-547,247,-172,,,,0x020,,,,,,,,,,,,,,,,,,
3265007525,-988,-18,-31,-1190,-7455,-503,-547,247,-172,,,,0x058,,,,,,,,,,,,,,,,,,
3265071727,-988,-18,-31,-1190,-7455,-503,-541,238,-175,,,,0x020,,,,,,,,,,,,,,,,,,
3265088356,-1022,-15,4,328,-8408,1404,-541,238,-175,,,,0x018,,,,,,,,,,,,,,,,,,
3265166916,-1018,-8,13,319,-14258,175,-541,238,-175,,,,0x058,,,,,,,,,,,,,,,,,,
3265169609,-1018,-8,13,319,-14258,175,-535,240,-186,,,,0x020,,,,,,,,,,,,,,,,,,
3265247747,-1007,-14,42,3276,-21485,-1557,-535,240,-186,,,,0x058,,,,,,,,,,,,,,,,,,
3265268891,-1007,-14,42,3276,-21485,-1557,-528,241,-196,,,,0x020,,,,,,,,,,,,,,,,,,
3265326530,-1003,-8,41,2030,-25217,-984,-528,241,-196,,,,0x058,,,,,,,,,,,,,,,,,,
3265368177,-1003,-8,41,2030,-25217,-984,-514,240,-213,,,,0x020,,,,,,,,,,,,,,,,,,
3265405308,-997,-1,150,2340,-33967,-2432,-514,240,-213,,,,0x018,,,,,,,,,,,,,,,,,,
3265467466,-997,-1,150,2340,-33967,-2432,-498,249,-241,,,,0x060,,,,,,,,,,,,,,,,,,
3265486143,-984,-28,119,-2747,-38574,-8006,-498,249,-241,,,,0x018,,,,,,,,,,,,,,,,,,
3265564697,-959,-77,287,-2948,-59167,-6628,-469,252,-268,,,,0x078,,,,,,,,,,,,,,,,,,
3265645526,-943,-48,341,1684,-45526,310,-469,252,-268,,,,0x058,,,,,,,,,,,,,,,,,,
3265664620,-943,-48,341,1684,-45526,310,-445,253,-283,,,,0x020,,,,,,,,,,,,,,,,,,
3265724309,-925,-20,352,2178,-35735,2100,-445,253,-283,,,,0x058,,,,,,,,,,,,,,,,,,
3265763909,-925,-20,352,2178,-35735,2100,-427,246,-298,,,,0x020,,,,,,,,,,,,,,,,,,
3265803088,-910,-25,393,-1273,-33831,271,-427,246,-298,,,,0x018,,,,,,,,,,,,,,,,,,
3265863193,-910,-25,393,-1273,-33831,271,-408,250,-306,,,,0x060,,,,,,,,,,,,,,,,,,
3265883921,-902,-18,439,4178,-37279,892,-408,250,-306,,,,0x018,,,,,,,,,,,,,,,,,,
3265962478,-867,-25,496,-6383,-52596,-4440,-369,256,-325,,,,0x078,,,,,,,,,,,,,,,,,,
3266043303,-820,-52,576,-4602,-58533,-6374,-369,256,-325,,,,0x058,,,,,,,,,,,,,,,,,,
3266060347,-820,-52,576,-4602,-58533,-6374,-334,252,-345,,,,0x020,,,,,,,,,,,,,,,,,,
3266122085,-772,-66,639,-1260,-52460,-5936,-334,252,-345,,,,0x058,,,,,,,,,,,,,,,,,,
3266159630,-772,-66,639,-1260,-52460,-5936,-310,247,-348,,,,0x020,,,,,,,,,,,,,,,,,,
3266200860,-729,-76,719,616,-45294,-5477,-310,247,-348,,,,0x018,,,,,,,,,,,,,,,,,,
3266258919,-729,-76,719,616,-45294,-5477,-282,246,-355,,,,0x060,,,,,,,,,,,,,,,,,,
3266281696,-700,-67,735,4361,-34706,-1802,-282,246,-355,,,,0x018,,,,,,,,,,,,,,,,,,
3266358202,-700,-67,735,4361,-34706,-1802,-261,250,-360,,,,0x060,,,,,,,,,,,,,,,,,,
3266360478,-666,-59,723,2524,-32956,-1181,-261,250,-360,,,,0x018,,,,,,,,,,,,,,,,,,
3266441085,-629,-70,779,6606,-38788,-1080,-261,250,-360,,,,0x058,,,,,,,,,,,,,,,,,,
3266456080,-629,-70,779,6606,-38788,-1080,-234,255,-351,,,,0x020,,,,,,,,,,,,,,,,,,
3266519862,-585,-51,825,2436,-43894,-1841,-234,255,-351,,,,0x018,,,,,,,,,,,,,,,,,,
3266555369,-585,-51,825,2436,-43894,-1841,-199,252,-351,,,,0x060,,,,,,,,,,,,,,,,,,
3266598647,-585,-51,825,2222,-45587,-3889,-199,252,-351,,,,0x010,,,,,,,,,,,,,,,,,,
3266601022,-536,-53,845,2222,-45587,-3889,-199,252,-351,,,,0x008,,,,,,,,,,,,,,,,,,
3266654660,-536,-53,845,2222,-45587,-3889,-181,246,-349,,,,0x060,,,,,,,,,,,,,,,,,,
3266679487,-477,-64,896,1881,-45071,-6273,-181,246,-349,,,,0x018,,,,,,,,,,,,,,,,,,
3266753940,-477,-64,896,1881,-45071,-6273,-162,247,-352,,,,0x060,,,,,,,,,,,,,,,,,,
3266758267,-433,-68,929,3893,-34965,-3701,-162,247,-352,,,,0x018,,,,,,,,,,,,,,,,,,
3266838880,-397,-59,933,5158,-31443,-2152,-162,247,-352,,,,0x058,,,,,,,,,,,,,,,,,,
3266851823,-397,-59,933,5158,-31443,-2152,-138,249,-354,,,,0x020,,,,,,,,,,,,,,,,,,
3266917657,-357,-62,933,4068,-29715,-3456,-138,249,-354,,,,0x018,,,,,,,,,,,,,,,,,,
3266951114,-357,-62,933,4068,-29715,-3456,-118,235,-352,,,,0x060,,,,,,,,,,,,,,,,,,
3266998492,-317,-53,979,-354,-35826,-4493,-118,235,-352,,,,0x018,,,,,,,,,,,,,,,,,,
3267050397,-317,-53,979,-354,-35826,-4493,-100,238,-342,,,,0x060,,,,,,,,,,,,,,,,,,
3267077276,-272,-59,1000,258,-33709,-4121,-100,238,-342,,,,0x018,,,,,,,,,,,,,,,,,,
3267149684,-272,-59,1000,258,-33709,-4121,-84,240,-339,,,,0x060,,,,,,,,,,,,,,,,,,
3267156062,-232,-69,1000,43,-27295,-3150,-84,240,-339,,,,0x018,,,,,,,,,,,,,,,,,,
3267236665,-202,-58,997,1680,-24911,-1050,-84,240,-339,,,,0x058,,,,,,,,,,,,,,,,,,
3267247559,-202,-58,997,1680,-24911,-1050,-72,240,-334,,,,0x020,,,,,,,,,,,,,,,,,,
3267315440,-169,-47,978,905,-20199,-1295,-72,240,-334,,,,0x018,,,,,,,,,,,,,,,,,,
3267346843,-169,-47,978,905,-20199,-1295,-66,234,-328,,,,0x060,,,,,,,,,,,,,,,,,,
3267396276,-156,-57,1018,5617,-19057,-2979,-66,234,-328,,,,0x018,,,,,,,,,,,,,,,,,,
3267446132,-156,-57,1018,5617,-19057,-2979,-49,238,-327,,,,0x060,,,,,,,,,,,,,,,,,,
3267475062,-128,-48,1030,4908,-18580,-2170,-49,238,-327,,,,0x018,,,,,,,,,,,,,,,,,,
3267545420,-128,-48,1030,4908,-18580,-2170,-34,241,-321,,,,0x060,,,,,,,,,,,,,,,,,,
3267553848,-102,-38,1012,1951,-14236,-1750,-34,241,-321,,,,0x018,,,,,,,,,,,,,,,,,,
3267634444,-91,-55,1019,310,-10228,-2760,-34,241,-321,,,,0x018,,,,,,,,,,,,,,,,,,
3267643288,-91,-55,1019,310,-10228,-2760,-33,234,-309,,,,0x060,,,,,,,,,,,,,,,,,,
3267713225,-73,-47,1018,-879,-10521,-1837,-33,234,-309,,,,0x018,,,,,,,,,,,,,,,,,,
3267742570,-73,-47,1018,-879,-10521,-1837,-30,234,-325,,,,0x020,,,,,,,,,,,,,,,,,,
3267794062,-64,-45,1019,144,-7660,-612,-30,234,-325,,,,0x058,,,,,,,,,,,,,,,,,,
3267841860,-64,-45,1019,144,-7660,-612,-27,232,-310,,,,0x020,,,,,,,,,,,,,,,,,,
3267872846,-65,-49,1004,1780,-2086,-306,-27,232,-310,,,,0x058,,,,,,,,,,,,,,,,,,
3267941141,-65,-49,1004,1780,-2086,-306,-25,226,-313,,,,0x020,,,,,,,,,,,,,,,,,,
3267951627,-58,-54,1027,1006,-2060,-870,-25,226,-313,,,,0x058,,,,,,,,,,,,,,,,,,
3268032228,-59,-43,1010,1347,-962,529,-25,226,-313,,,,0x018,,,,,,,,,,,,,,,,,,
3268039021,-59,-43,1010,1347,-962,529,-24,225,-316,,,,0x020,,,,,,,,,,,,,,,,,,
3268111014,-57,-48,1022,1106,-2139,-122,-24,225,-316,,,,0x058,,,,,,,,,,,,,,,,,,
3268138310,-57,-48,1022,1106,-2139,-122,-21,223,-313,,,,0x020,,,,,,,,,,,,,,,,,,
3268191848,-53,-43,1020,581,-1566,743,-21,223,-313,,,,0x058,,,,,,,,,,,,,,,,,,
3268237593,-53,-43,1020,581,-1566,743,-21,228,-312,,,,0x020,,,,,,,,,,,,,,,,,,
3268270630,-54,-38,1008,1120,83,691,-21,228,-312,,,,0x058,,,,,,,,,,,,,,,,,,
3268334829,-54,-38,1008,1120,83,691,-25,237,-309,,,,0x020,,,,,,,,,,,,,,,,,,
3268349407,-59,-45,995,3224,17,43,-25,237,-309,,,,0x018,,,,,,,,,,,,,,,,,,
3268430016,-53,-31,1023,2065,-2625,-328,-25,237,-309,,,,0x058,,,,,,,,,,,,,,,,,,
3268434760,-53,-31,1023,2065,-2625,-328,-27,232,-316,,,,0x020,,,,,,,,,,,,,,,,,,
3268508797,-49,-38,1020,542,-835,-953,-27,232,-316,,,,0x058,,,,,,,,,,,,,,,,,,
3268534040,-49,-38,1020,542,-835,-953,-24,228,-313,,,,0x020,,,,,,,,,,,,,,,,,,
3268589627,-46,-36,1015,266,-441,-301,-24,228,-313,,,,0x058,,,,,,,,,,,,,,,,,,
3268633325,-46,-36,1015,266,-441,-301,-22,228,-313,,,,0x020,,,,,,,,,,,,,,,,,,
3268668415,-42,-45,1016,-183,-1207,-813,-22,228,-313,,,,0x058,,,,,,,,,,,,,,,,,,
3268730563,-42,-45,1016,-183,-1207,-813,-30,228,-312,,,,0x020,,,,,,,,,,,,,,,,,,
3268747190,-49,-40,1016,-1618,-735,140,-30,228,-312,,,,0x018,,,,,,,,,,,,,,,,,,
3268827794,-46,-42,1027,-573,-56,595,-30,228,-312,,,,0x058,,,,,,,,,,,,,,,,,,
3268830487,-46,-42,1027,-573,-56,595,-21,241,-309,,,,0x020,,,,,,,,,,,,,,,,,,
3268906578,-58,-28,1010,398,721,665,-21,241,-309,,,,0x058,,,,,,,,,,,,,,,,,,
3268929773,-58,-28,1010,398,721,665,-16,234,-307,,,,0x020,,,,,,,,,,,,,,,,,,
3268987415,-51,-36,1014,1544,-840,-1255,-16,234,-307,,,,0x058,,,,,,,,,,,,,,,,,,
3269029062,-51,-36,1014,1544,-840,-1255,-16,229,-310,,,,0x020,,,,,,,,,,,,,,,,,,
3269066196,-41,-41,1013,1225,-1194,-3998,-16,229,-310,,,,0x058,,,,,,,,,,,,,,,,,,
3269126293,-41,-41,1013,1225,-1194,-3998,-27,219,-307,,,,0x020,,,,,,,,,,,,,,,,,,
3269144972,-35,-40,1023,1833,1181,-8938,-27,219,-307,,,,0x018,,,,,,,,,,,,,,,,,,
3269225579,-47,-34,994,-1815,3911,-9594,-30,222,-312,,,,0x078,,,,,,,,,,,,,,,,,,
3269304356,-49,-62,1013,-1194,-2130,-6418,-30,222,-312,,,,0x058,,,,,,,,,,,,,,,,,,
3269325502,-49,-62,1013,-1194,-2130,-6418,-24,222,-312,,,,0x020,,,,,,,,,,,,,,,,,,
3269385190,-53,-35,1015,-1019,-2673,-4278,-24,222,-312,,,,0x058,,,,,,,,,,,,,,,,,,
3269424785,-53,-35,1015,-1019,-2673,-4278,-27,231,-309,,,,0x020,,,,,,,,,,,,,,,,,,
3269463964,-47,-44,1018,2008,-266,-9511,-27,231,-309,,,,0x018,,,,,,,,,,,,,,,,,,
3269522022,-47,-44,1018,2008,-266,-9511,-27,217,-307,,,,0x060,,,,,,,,,,,,,,,,,,
3269542749,-53,10,1021,-266,-13,-19652,-27,217,-307,,,,0x018,,,,,,,,,,,,,,,,,,
3269621309,-53,10,1021,-266,-13,-19652,-39,204,-312,,,,0x060,,,,,,,,,,,,,,,,,,
3269623584,-42,-25,1032,12066,1815,-34256,-39,204,-312,,,,0x018,,,,,,,,,,,,,,,,,,
3269702139,-32,-50,1013,1566,695,-33193,-39,204,-312,,,,0x058,,,,,,,,,,,,,,,,,,
3269721233,-32,-50,1013,1566,695,-33193,-45,201,-319,,,,0x020,,,,,,,,,,,,,,,,,,
3269782976,-46,-16,1009,-205,96,-26871,-45,201,-319,,,,0x058,,,,,,,,,,,,,,,,,,
3269818476,-46,-16,1009,-205,96,-26871,-51,199,-306,,,,0x020,,,,,,,,,,,,,,,,,,
3269861758,-47,-19,1026,3482,65,-33236,-51,199,-306,,,,0x018,,,,,,,,,,,,,,,,,,
3269917766,-47,-19,1026,3482,65,-33236,-60,181,-318,,,,0x060,,,,,,,,,,,,,,,,,,
3269940544,-35,-39,1008,4103,1487,-45587,-60,181,-318,,,,0x018,,,,,,,,,,,,,,,,,,
3270017047,-35,-39,1008,4103,1487,-45587,-63,171,-316,,,,0x060,,,,,,,,,,,,,,,,,,
3270021374,-50,22,1023,6059,288,-47171,-63,171,-316,,,,0x018,,,,,,,,,,,,,,,,,,
3270099934,-31,-34,1003,-476,-398,-57246,-63,171,-316,,,,0x058,,,,,,,,,,,,,,,,,,
3270116977,-31,-34,1003,-476,-398,-57246,-70,165,-321,,,,0x020,,,,,,,,,,,,,,,,,,
3270180760,-13,-61,1010,-4270,-8124,-56573,-70,165,-321,,,,0x058,,,,,,,,,,,,,,,,,,
3270214208,-13,-61,1010,-4270,-8124,-56573,-84,162,-316,,,,0x020,,,,,,,,,,,,,,,,,,
3270259536,-4,0,993,-4760,-17762,-47376,-84,162,-316,,,,0x018,,,,,,,,,,,,,,,,,,
3270313490,-4,0,993,-4760,-17762,-47376,-85,157,-313,,,,0x060,,,,,,,,,,,,,,,,,,
3270338320,29,-64,1045,-5005,-13715,-48265,-85,157,-313,,,,0x018,,,,,,,,,,,,,,,,,,
3270412781,29,-64,1045,-5005,-13715,-48265,-103,144,-318,,,,0x060,,,,,,,,,,,,,,,,,,
3270419158,27,-46,1046,5267,2673,-47407,-103,144,-318,,,,0x018,,,,,,,,,,,,,,,,,,
3270497719,15,-35,1011,-971,3675,-48426,-103,144,-318,,,,0x058,,,,,,,,,,,,,,,,,,
3270512714,15,-35,1011,-971,3675,-48426,-108,142,-321,,,,0x020,,,,,,,,,,,,,,,,,,
3270578544,19,-23,1023,-4904,-1859,-48278,-108,142,-321,,,,0x018,,,,,,,,,,,,,,,,,,
3270609946,19,-23,1023,-4904,-1859,-48278,-115,136,-324,,,,0x060,,,,,,,,,,,,,,,,,,
3270657328,26,-60,1030,-6107,293,-51331,-115,136,-324,,,,0x018,,,,,,,,,,,,,,,,,,
3270709235,26,-60,1030,-6107,293,-51331,-135,129,-330,,,,0x060,,,,,,,,,,,,,,,,,,
3270736115,35,-69,1003,-831,2642,-49538,-135,129,-330,,,,0x018,,,,,,,,,,,,,,,,,,
3270808524,35,-69,1003,-831,2642,-49538,-147,129,-324,,,,0x060,,,,,,,,,,,,,,,,,,
3270816952,41,-62,997,4134,-345,-44528,-147,129,-324,,,,0x018,,,,,,,,,,,,,,,,,,
3270895507,40,-53,1026,7170,-2515,-40018,-147,129,-324,,,,0x058,,,,,,,,,,,,,,,,,,
3270908452,40,-53,1026,7170,-2515,-40018,-160,123,-321,,,,0x020,,,,,,,,,,,,,,,,,,
3270976331,41,-62,1037,10136,5810,-33718,-160,123,-321,,,,0x018,,,,,,,,,,,,,,,,,,
3271005684,41,-62,1037,10136,5810,-33718,-174,117,-325,,,,0x060,,,,,,,,,,,,,,,,,,
3271055117,0,0,990,1920,10154,-30730,-174,117,-325,,,,0x018,,,,,,,,,,,,,,,,,,
3271104974,0,0,990,1920,10154,-30730,-190,126,-330,,,,0x060,,,,,,,,,,,,,,,,,,
3271133906,-27,46,1004,-1868,2695,-35153,-190,126,-330,,,,0x018,,,,,,,,,,,,,,,,,,
3271204266,-27,46,1004,-1868,2695,-35153,-211,115,-325,,,,0x060,,,,,,,,,,,,,,,,,,
3271214743,8,-18,984,1102,3635,-47114,-211,115,-325,,,,0x018,,,,,,,,,,,,,,,,,,
3271293289,24,-18,1051,490,-406,-45696,-211,115,-325,,,,0x018,,,,,,,,,,,,,,,,,,
3271304190,24,-18,1051,490,-406,-45696,-220,126,-328,,,,0x060,,,,,,,,,,,,,,,,,,
3271374125,11,-44,1041,-586,3758,-40880,-220,126,-328,,,,0x018,,,,,,,,,,,,,,,,,,
3271401429,11,-44,1041,-586,3758,-40880,-238,124,-322,,,,0x060,,,,,,,,,,,,,,,,,,
3271452912,-24,16,1000,-1316,4830,-27829,-238,124,-322,,,,0x018,,,,,,,,,,,,,,,,,,
3271500711,-24,16,1000,-1316,4830,-27829,-241,135,-333,,,,0x060,,,,,,,,,,,,,,,,,,
3271531689,-13,-29,1030,7161,1680,-29246,-241,135,-333,,,,0x018,,,,,,,,,,,,,,,,,,
3271599985,-13,-29,1030,7161,1680,-29246,-247,124,-325,,,,0x020,,,,,,,,,,,,,,,,,,
3271612521,10,-31,1012,5810,-3045,-27383,-247,124,-325,,,,0x058,,,,,,,,,,,,,,,,,,
3271691072,9,-3,1015,4169,-4003,-17714,-247,124,-325,,,,0x018,,,,,,,,,,,,,,,,,,
3271697866,9,-3,1015,4169,-4003,-17714,-247,117,-327,,,,0x020,,,,,,,,,,,,,,,,,,
3271771911,5,-10,1012,861,-192,-12368,-247,117,-327,,,,0x058,,,,,,,,,,,,,,,,,,
3271797158,5,-10,1012,861,-192,-12368,-255,129,-319,,,,0x020,,,,,,,,,,,,,,,,,,
3271850695,0,-9,1004,-2008,406,-7691,-255,129,-319,,,,0x058,,,,,,,,,,,,,,,,,,
3271896440,0,-9,1004,-2008,406,-7691,-261,127,-327,,,,0x020,,,,,,,,,,,,,,,,,,
3271929476,-4,0,1032,761,144,-853,-261,127,-327,,,,0x058,,,,,,,,,,,,,,,,,,
3271995727,-4,0,1032,761,144,-853,-253,129,-328,,,,0x020,,,,,,,,,,,,,,,,,,
3272010313,-9,-8,1020,-131,1365,1216,-253,129,-328,,,,0x058,,,,,,,,,,,,,,,,,,
3272088868,-2,-10,1006,-56,813,3045,-253,129,-328,,,,0x018,,,,,,,,,,,,,,,,,,
3272093611,-2,-10,1006,-56,813,3045,-268,115,-330,,,,0x020,,,,,,,,,,,,,,,,,,
3272169699,-2,-10,1014,148,-468,5026,-268,115,-330,,,,0x058,,,,,,,,,,,,,,,,,,
3272192893,-2,-10,1014,148,-468,5026,-258,129,-327,,,,0x020,,,,,,,,,,,,,,,,,,
3272248480,-2,-16,1031,-879,-748,9323,-258,129,-327,,,,0x058,,,,,,,,,,,,,,,,,,
3272292177,-2,-16,1031,-879,-748,9323,-247,123,-321,,,,0x020,,,,,,,,,,,,,,,,,,
3272327268,-20,-4,1030,231,-975,13103,-247,123,-321,,,,0x058,,,,,,,,,,,,,,,,,,
3272391468,-20,-4,1030,231,-975,13103,-244,124,-319,,,,0x020,,,,,,,,,,,,,,,,,,
3272408095,-13,4,980,-2143,1968,12201,-244,124,-319,,,,0x018,,,,,,,,,,,,,,,,,,
3272486653,3,-23,1014,288,-988,10053,-244,124,-319,,,,0x058,,,,,,,,,,,,,,,,,,
3272489346,3,-23,1014,288,-988,10053,-243,121,-336,,,,0x020,,,,,,,,,,,,,,,,,,
3272567487,17,-19,1034,2598,-2240,17351,-243,121,-336,,,,0x058,,,,,,,,,,,,,,,,,,
3272588631,17,-19,1034,2598,-2240,17351,-235,117,-328,,,,0x020,,,,,,,,,,,,,,,,,,
3272646274,0,-14,1002,-3775,-1605,25991,-235,117,-328,,,,0x058,,,,,,,,,,,,,,,,,,
3272687923,0,-14,1002,-3775,-1605,25991,-225,118,-325,,,,0x020,,,,,,,,,,,,,,,,,,
3272725064,18,-24,1037,2489,-2371,30415,-225,118,-325,,,,0x058,,,,,,,,,,,,,,,,,,
3272787215,18,-24,1037,2489,-2371,30415,-214,103,-322,,,,0x020,,,,,,,,,,,,,,,,,,
3272805892,-3,33,1000,11418,5512,36636,-214,103,-322,,,,0x018,,,,,,,,,,,,,,,,,,
3272884447,-16,5,1007,1951,2502,32554,-198,117,-325,,,,0x078,,,,,,,,,,,,,,,,,,
3272963227,-16,5,1007,-3298,153,31316,-198,117,-325,,,,0x050,,,,,,,,,,,,,,,,,,
3272965602,13,-23,1007,-3298,153,31316,-198,117,-325,,,,0x008,,,,,,,,,,,,,,,,,,
3272984379,13,-23,1007,-3298,153,31316,-198,109,-325,,,,0x020,,,,,,,,,,,,,,,,,,
3273044072,1,-5,1012,-1273,-927,34116,-198,109,-325,,,,0x058,,,,,,,,,,,,,,,,,,
3273083671,1,-5,1012,-1273,-927,34116,-183,108,-327,,,,0x020,,,,,,,,,,,,,,,,,,
3273122848,1,-8,1042,-2161,-1382,41890,-183,108,-327,,,,0x018,,,,,,,,,,,,,,,,,,
3273182957,1,-8,1042,-2161,-1382,41890,-172,114,-324,,,,0x060,,,,,,,,,,,,,,,,,,
3273203683,8,-49,1051,-1907,4138,50846,-172,114,-324,,,,0x018,,,,,,,,,,,,,,,,,,
3273282239,-16,23,981,-1058,9480,63371,-150,124,-321,,,,0x078,,,,,,,,,,,,,,,,,,
3273361020,-25,31,1052,-599,5823,53016,-150,124,-321,,,,0x058,,,,,,,,,,,,,,,,,,
3273380116,-25,31,1052,-599,5823,53016,-144,118,-325,,,,0x020,,,,,,,,,,,,,,,,,,
3273441856,-20,-15,1023,6632,15286,48041,-144,118,-325,,,,0x058,,,,,,,,,,,,,,,,,,
3273479400,-20,-15,1023,6632,15286,48041,-142,121,-313,,,,0x020,,,,,,,,,,,,,,,,,,
3273520629,-47,9,984,5626,14511,49030,-142,121,-313,,,,0x018,,,,,,,,,,,,,,,,,,
3273578682,-47,9,984,5626,14511,49030,-132,123,-309,,,,0x060,,,,,,,,,,,,,,,,,,
3273601461,-62,8,1014,2594,9095,48772,-132,123,-309,,,,0x018,,,,,,,,,,,,,,,,,,
3273677971,-62,8,1014,2594,9095,48772,-121,118,-307,,,,0x060,,,,,,,,,,,,,,,,,,
3273680246,-98,102,1026,15089,16012,57942,-121,118,-307,,,,0x018,,,,,,,,,,,,,,,,,,
3273758806,-89,32,1020,8076,11388,56249,-121,118,-307,,,,0x058,,,,,,,,,,,,,,,,,,
3273775849,-89,32,1020,8076,11388,56249,-108,127,-310,,,,0x020,,,,,,,,,,,,,,,,,,
3273839635,-104,92,989,-8531,1330,50071,-108,127,-310,,,,0x058,,,,,,,,,,,,,,,,,,
3273875130,-104,92,989,-8531,1330,50071,-99,142,-313,,,,0x020,,,,,,,,,,,,,,,,,,
3273918411,-90,79,975,-7433,-459,40271,-99,142,-313,,,,0x018,,,,,,,,,,,,,,,,,,
3273974419,-90,79,975,-7433,-459,40271,-93,150,-312,,,,0x060,,,,,,,,,,,,,,,,,,
3273999246,-87,35,1041,-11834,-3031,36977,-93,150,-312,,,,0x018,,,,,,,,,,,,,,,,,,
3274073701,-87,35,1041,-11834,-3031,36977,-75,150,-309,,,,0x060,,,,,,,,,,,,,,,,,,
3274078027,-68,-23,993,-6903,2292,37782,-75,150,-309,,,,0x018,,,,,,,,,,,,,,,,,,
3274156588,-96,87,1009,-22168,-3850,38828,-75,150,-309,,,,0x058,,,,,,,,,,,,,,,,,,
3274171582,-96,87,1009,-22168,-3850,38828,-73,175,-321,,,,0x020,,,,,,,,,,,,,,,,,,
3274237418,-57,-80,1008,-18777,1102,32003,-73,175,-321,,,,0x018,,,,,,,,,,,,,,,,,,
3274270872,-57,-80,1008,-18777,1102,32003,-60,199,-316,,,,0x060,,,,,,,,,,,,,,,,,,
3274316208,-92,-37,1050,-15925,4733,45679,-60,199,-316,,,,0x018,,,,,,,,,,,,,,,,,,
3274370167,-92,-37,1050,-15925,4733,45679,-66,207,-316,,,,0x060,,,,,,,,,,,,,,,,,,
3274397044,-103,11,994,-8491,9406,48733,-66,207,-316,,,,0x018,,,,,,,,,,,,,,,,,,
3274469451,-103,11,994,-8491,9406,48733,-60,211,-321,,,,0x060,,,,,,,,,,,,,,,,,,
3274475830,-105,-25,1031,-11611,-1662,35831,-60,211,-321,,,,0x018,,,,,,,,,,,,,,,,,,
3274554387,-88,-40,1023,-5376,-2213,28958,-60,211,-321,,,,0x058,,,,,,,,,,,,,,,,,,
3274567332,-88,-40,1023,-5376,-2213,28958,-54,219,-321,,,,0x020,,,,,,,,,,,,,,,,,,
3274635219,-84,-51,1007,-3718,-997,26687,-54,219,-321,,,,0x018,,,,,,,,,,,,,,,,,,
3274666625,-84,-51,1007,-3718,-997,26687,-39,228,-316,,,,0x060,,,,,,,,,,,,,,,,,,
3274714006,-104,-39,1008,3758,1876,25471,-39,228,-316,,,,0x018,,,,,,,,,,,,,,,,,,
3274765915,-104,-39,1008,3758,1876,25471,-39,225,-315,,,,0x060,,,,,,,,,,,,,,,,,,
3274794842,-108,-33,1000,4340,2226,21743,-39,225,-315,,,,0x018,,,,,,,,,,,,,,,,,,
3274865195,-108,-33,1000,4340,2226,21743,-37,243,-319,,,,0x060,,,,,,,,,,,,,,,,,,
3274873621,-116,-35,1000,-1373,1299,15741,-37,243,-319,,,,0x018,,,,,,,,,,,,,,,,,,
3274952173,-116,-35,1000,-2874,-1688,13470,-37,243,-319,,,,0x050,,,,,,,,,,,,,,,,,,
3274954548,-122,-10,1038,-2874,-1688,13470,-37,243,-319,,,,0x008,,,,,,,,,,,,,,,,,,
3274963076,-122,-10,1038,-2874,-1688,13470,-51,241,-319,,,,0x020,,,,,,,,,,,,,,,,,,
3275033011,-109,-20,1018,-888,319,7231,-51,241,-319,,,,0x018,,,,,,,,,,,,,,,,,,
3275062367,-109,-20,1018,-888,319,7231,-37,232,-319,,,,0x060,,,,,,,,,,,,,,,,,,
3275111795,-103,-40,1018,135,1299,1964,-37,232,-319,,,,0x018,,,,,,,,,,,,,,,,,,
3275161649,-103,-40,1018,135,1299,1964,-49,244,-318,,,,0x060,,,,,,,,,,,,,,,,,,
3275192626,-112,-37,995,-459,971,1347,-49,244,-318,,,,0x018,,,,,,,,,,,,,,,,,,
3275260936,-112,-37,995,-459,971,1347,-46,238,-322,,,,0x060,,,,,,,,,,,,,,,,,,
3275271414,-118,-37,986,-459,-1470,533,-46,238,-322,,,,0x018,,,,,,,,,,,,,,,,,,
3275352015,-107,-55,1011,-1973,-3329,-358,-46,238,-322,,,,0x018,,,,,,,,,,,,,,,,,,
3275358810,-107,-55,1011,-1973,-3329,-358,-43,235,-324,,,,0x060,,,,,,,,,,,,,,,,,,
