#Format version: 1.0
time[us],accX[mg],accY[mg],accZ[mg],gyroX[mdps],gyroY[mdps],gyroZ[mdps],magnX[mG],magnY[mG],magnZ[mG],press[hPa],temp[C],hum[%RH],newData,interrupts,fsm1,fsm2,fsm3,fsm4,fsm5,fsm6,fsm7,fsm8,fsm9,fsm10,fsm11,fsm12,fsm13,fsm14,fsm15,fsm16,
536324484,12,-40,1016,376,78,-131,-27,240,-286,,,,0x078,,,,,,,,,,,,,,,,,,
536347679,12,-40,1016,376,78,-131,-30,234,-277,,,,0x020,,,,,,,,,,,,,,,,,,
536403261,15,-43,1026,481,56,-245,-30,234,-277,,,,0x018,,,,,,,,,,,,,,,,,,
536446967,15,-43,1026,481,56,-245,-25,231,-298,,,,0x060,,,,,,,,,,,,,,,,,,
536484097,11,-49,1009,599,756,-293,-25,231,-298,,,,0x018,,,,,,,,,,,,,,,,,,
536544207,11,-49,1009,599,756,-293,-33,237,-297,,,,0x060,,,,,,,,,,,,,,,,,,
536562886,13,-51,1002,148,315,140,-33,237,-297,,,,0x018,,,,,,,,,,,,,,,,,,
536641444,13,-51,1002,-183,-953,1238,-33,237,-297,,,,0x050,,,,,,,,,,,,,,,,,,
536643819,8,-39,1024,-183,-953,1238,-24,223,-303,,,,0x028,,,,,,,,,,,,,,,,,,
536722267,10,-31,1017,-131,-411,1181,-24,223,-303,,,,0x058,,,,,,,,,,,,,,,,,,
536743414,10,-31,1017,-131,-411,1181,-30,234,-289,,,,0x020,,,,,,,,,,,,,,,,,,
536801045,9,-36,1024,297,-363,39,-30,234,-289,,,,0x018,,,,,,,,,,,,,,,,,,
536842699,9,-36,1024,297,-363,39,-31,225,-295,,,,0x060,,,,,,,,,,,,,,,,,,
536881876,12,-49,1019,625,511,-721,-31,225,-295,,,,0x018,,,,,,,,,,,,,,,,,,
536939930,12,-49,1019,625,511,-721,-24,231,-295,,,,0x060,,,,,,,,,,,,,,,,,,
536960659,13,-50,1016,752,853,-188,-24,231,-295,,,,0x018,,,,,,,,,,,,,,,,,,
537039218,13,-50,1016,752,853,-188,-36,231,-295,,,,0x060,,,,,,,,,,,,,,,,,,
537041493,11,-42,1007,546,704,415,-36,231,-295,,,,0x018,,,,,,,,,,,,,,,,,,
537120039,11,-40,1014,669,-218,406,-36,231,-295,,,,0x018,,,,,,,,,,,,,,,,,,
537139142,11,-40,1014,669,-218,406,-30,226,-288,,,,0x060,,,,,,,,,,,,,,,,,,
537198820,10,-43,1029,630,-393,183,-30,226,-288,,,,0x018,,,,,,,,,,,,,,,,,,
537238425,10,-43,1029,630,-393,183,-25,226,-294,,,,0x060,,,,,,,,,,,,,,,,,,
537279656,6,-35,1012,1356,940,402,-25,226,-294,,,,0x018,,,,,,,,,,,,,,,,,,
537335663,6,-35,1012,1356,940,402,-25,231,-294,,,,0x060,,,,,,,,,,,,,,,,,,
537358439,6,-38,1009,3346,525,13,-25,231,-294,,,,0x018,,,,,,,,,,,,,,,,,,
537434941,6,-38,1009,3346,525,13,-33,225,-289,,,,0x060,,,,,,,,,,,,,,,,,,
537437218,7,-21,1028,7726,525,-135,-33,225,-289,,,,0x018,,,,,,,,,,,,,,,,,,
537517819,6,-9,1014,10548,2686,-581,-33,225,-289,,,,0x018,,,,,,,,,,,,,,,,,,
537534863,6,-9,1014,10548,2686,-581,-27,219,-292,,,,0x060,,,,,,,,,,,,,,,,,,
537596597,-1,0,1014,10456,2528,-910,-27,219,-292,,,,0x018,,,,,,,,,,,,,,,,,,
537634142,-1,0,1014,10456,2528,-910,-22,205,-280,,,,0x020,,,,,,,,,,,,,,,,,,
537677428,-4,21,1018,13685,2323,-1281,-22,205,-280,,,,0x058,,,,,,,,,,,,,,,,,,
537731371,-4,21,1018,13685,2323,-1281,-28,205,-291,,,,0x020,,,,,,,,,,,,,,,,,,
537756209,-6,41,1018,18195,3574,-1636,-28,205,-291,,,,0x058,,,,,,,,,,,,,,,,,,
537830660,-6,41,1018,18195,3574,-1636,-33,190,-283,,,,0x020,,,,,,,,,,,,,,,,,,
537837036,-10,67,1007,24263,5140,-1658,-33,190,-283,,,,0x018,,,,,,,,,,,,,,,,,,
537915588,-18,119,988,21787,1776,-1426,-33,190,-283,,,,0x058,,,,,,,,,,,,,,,,,,
537930581,-18,119,988,21787,1776,-1426,-39,178,-280,,,,0x020,,,,,,,,,,,,,,,,,,
537994368,-17,124,1011,23388,262,-2769,-39,178,-280,,,,0x058,,,,,,,,,,,,,,,,,,
538029866,-17,124,1011,23388,262,-2769,-33,172,-279,,,,0x020,,,,,,,,,,,,,,,,,,
538075208,-18,166,1021,24683,1771,-2043,-33,172,-279,,,,0x058,,,,,,,,,,,,,,,,,,
538129156,-18,166,1021,24683,1771,-2043,-42,145,-274,,,,0x020,,,,,,,,,,,,,,,,,,
538153993,-31,217,1008,30275,5320,-2060,-42,145,-274,,,,0x058,,,,,,,,,,,,,,,,,,
538226387,-31,217,1008,30275,5320,-2060,-40,117,-270,,,,0x020,,,,,,,,,,,,,,,,,,
538234814,-38,260,972,43561,9730,-4077,-40,117,-270,,,,0x018,,,,,,,,,,,,,,,,,,
538313367,-55,327,951,48685,9913,-5971,-40,117,-270,,,,0x058,,,,,,,,,,,,,,,,,,
538326313,-55,327,951,48685,9913,-5971,-39,99,-246,,,,0x020,,,,,,,,,,,,,,,,,,
538394207,-65,361,924,46799,6496,-6838,-39,99,-246,,,,0x058,,,,,,,,,,,,,,,,,,
538425603,-65,361,924,46799,6496,-6838,-55,84,-231,,,,0x020,,,,,,,,,,,,,,,,,,
538472989,-78,430,922,36653,3911,-2480,-55,84,-231,,,,0x058,,,,,,,,,,,,,,,,,,
538524884,-78,430,922,36653,3911,-2480,-58,69,-229,,,,0x020,,,,,,,,,,,,,,,,,,
538551771,-86,483,878,46795,8146,-1802,-58,69,-229,,,,0x058,,,,,,,,,,,,,,,,,,
538624168,-86,483,878,46795,8146,-1802,-63,39,-202,,,,0x020,,,,,,,,,,,,,,,,,,
538632595,-98,549,844,53344,7516,-2065,-63,39,-202,,,,0x018,,,,,,,,,,,,,,,,,,
538711153,-111,619,788,57194,8653,-2393,-63,39,-202,,,,0x058,,,,,,,,,,,,,,,,,,
538722046,-111,619,788,57194,8653,-2393,-64,22,-184,,,,0x020,,,,,,,,,,,,,,,,,,
538791982,-118,656,738,51253,7293,-2716,-64,22,-184,,,,0x058,,,,,,,,,,,,,,,,,,
538821326,-118,656,738,51253,7293,-2716,-61,6,-154,,,,0x020,,,,,,,,,,,,,,,,,,
538870765,-129,710,729,39020,3390,-2734,-61,6,-154,,,,0x058,,,,,,,,,,,,,,,,,,
538920614,-129,710,729,39020,3390,-2734,-58,-4,-144,,,,0x020,,,,,,,,,,,,,,,,,,
538949543,-129,736,668,36995,5818,-4138,-58,-4,-144,,,,0x018,,,,,,,,,,,,,,,,,,
539019902,-129,736,668,36995,5818,-4138,-79,-28,-126,,,,0x060,,,,,,,,,,,,,,,,,,
539030379,-139,754,633,44038,5070,-3806,-79,-28,-126,,,,0x018,,,,,,,,,,,,,,,,,,
539108934,-143,793,587,43146,5516,-1334,-79,-28,-126,,,,0x058,,,,,,,,,,,,,,,,,,
539117778,-143,793,587,43146,5516,-1334,-72,-21,-105,,,,0x020,,,,,,,,,,,,,,,,,,
539189768,-144,832,527,48195,8885,2778,-72,-21,-105,,,,0x058,,,,,,,,,,,,,,,,,,
539217063,-144,832,527,48195,8885,2778,-73,-25,-75,,,,0x020,,,,,,,,,,,,,,,,,,
539268552,-146,863,463,43885,7021,6212,-73,-25,-75,,,,0x058,,,,,,,,,,,,,,,,,,
539316351,-146,863,463,43885,7021,6212,-63,-37,-52,,,,0x020,,,,,,,,,,,,,,,,,,
539349379,-145,902,410,46698,3167,6374,-63,-37,-52,,,,0x018,,,,,,,,,,,,,,,,,,
539415634,-145,902,410,46698,3167,6374,-69,-37,-25,,,,0x060,,,,,,,,,,,,,,,,,,
539428162,-139,937,366,36736,-2848,5963,-69,-37,-25,,,,0x018,,,,,,,,,,,,,,,,,,
539506717,-139,937,366,36688,-4650,1719,-69,-37,-25,,,,0x050,,,,,,,,,,,,,,,,,,
539509092,-127,928,324,36688,-4650,1719,-69,-37,-25,,,,0x008,,,,,,,,,,,,,,,,,,
539513521,-127,928,324,36688,-4650,1719,-60,-39,-13,,,,0x020,,,,,,,,,,,,,,,,,,
539587564,-133,951,295,32436,-4672,-271,-60,-39,-13,,,,0x058,,,,,,,,,,,,,,,,,,
539612809,-133,951,295,32436,-4672,-271,-60,-45,0,,,,0x020,,,,,,,,,,,,,,,,,,
539666337,-126,965,259,23603,-4270,-3591,-60,-45,0,,,,0x058,,,,,,,,,,,,,,,,,,
539712081,-126,965,259,23603,-4270,-3591,-57,-40,19,,,,0x020,,,,,,,,,,,,,,,,,,
539747163,-125,962,205,28214,-3841,-3666,-57,-40,19,,,,0x018,,,,,,,,,,,,,,,,,,
539811367,-125,962,205,28214,-3841,-3666,-58,-45,37,,,,0x060,,,,,,,,,,,,,,,,,,
539825944,-137,955,193,33302,-3574,332,-58,-45,37,,,,0x018,,,,,,,,,,,,,,,,,,
539906552,-118,974,132,27632,-2065,5158,-58,-45,37,,,,0x058,,,,,,,,,,,,,,,,,,
539909246,-118,974,132,27632,-2065,5158,-55,-40,58,,,,0x020,,,,,,,,,,,,,,,,,,
539985335,-101,964,103,30786,-1557,11812,-55,-40,58,,,,0x058,,,,,,,,,,,,,,,,,,
540008528,-101,964,103,30786,-1557,11812,-40,-33,72,,,,0x020,,,,,,,,,,,,,,,,,,
540064111,-105,1011,81,27046,-1894,13597,-40,-33,72,,,,0x018,,,,,,,,,,,,,,,,,,
540107817,-105,1011,81,27046,-1894,13597,-33,-42,75,,,,0x060,,,,,,,,,,,,,,,,,,
540144947,-87,999,33,14389,-3206,4781,-33,-42,75,,,,0x018,,,,,,,,,,,,,,,,,,
540207108,-87,999,33,14389,-3206,4781,-45,-30,81,,,,0x060,,,,,,,,,,,,,,,,,,
540223735,-88,989,54,5906,-4755,971,-45,-30,81,,,,0x018,,,,,,,,,,,,,,,,,,
540304339,-74,986,3,5950,-2603,2034,-42,-30,94,,,,0x078,,,,,,,,,,,,,,,,,,
540383119,-81,996,46,6002,-5538,4156,-42,-30,94,,,,0x058,,,,,,,,,,,,,,,,,,
540404265,-81,996,46,6002,-5538,4156,-39,-31,81,,,,0x020,,,,,,,,,,,,,,,,,,
540461900,-74,1003,14,3421,-2546,1723,-39,-31,81,,,,0x018,,,,,,,,,,,,,,,,,,
540503555,-74,1003,14,3421,-2546,1723,-30,-25,87,,,,0x060,,,,,,,,,,,,,,,,,,
540542733,-69,978,19,2086,-4165,616,-30,-25,87,,,,0x018,,,,,,,,,,,,,,,,,,
540602837,-69,978,19,2086,-4165,616,-42,-28,99,,,,0x060,,,,,,,,,,,,,,,,,,
540621516,-75,992,21,3548,-2310,1491,-42,-28,99,,,,0x018,,,,,,,,,,,,,,,,,,
540702123,-69,982,16,966,-376,275,-37,-25,93,,,,0x078,,,,,,,,,,,,,,,,,,
540780888,-67,981,12,756,-192,1487,-37,-25,93,,,,0x018,,,,,,,,,,,,,,,,,,
540799992,-67,981,12,756,-192,1487,-43,-25,97,,,,0x060,,,,,,,,,,,,,,,,,,
540861720,-67,1012,10,-144,-236,2283,-43,-25,97,,,,0x018,,,,,,,,,,,,,,,,,,
540899276,-67,1012,10,-144,-236,2283,-48,-22,96,,,,0x060,,,,,,,,,,,,,,,,,,
540940507,-61,989,8,-1089,275,971,-48,-22,96,,,,0x018,,,,,,,,,,,,,,,,,,
540998565,-61,989,8,-1089,275,971,-42,-31,91,,,,0x060,,,,,,,,,,,,,,,,,,
541019293,-67,986,17,144,-542,1010,-42,-31,91,,,,0x018,,,,,,,,,,,,,,,,,,
541097846,-67,986,17,144,-542,1010,-34,-27,96,,,,0x060,,,,,,,,,,,,,,,,,,
541100121,-63,991,9,363,-236,1610,-34,-27,96,,,,0x018,,,,,,,,,,,,,,,,,,
541178668,-63,991,15,-761,-1680,1575,-34,-27,96,,,,0x018,,,,,,,,,,,,,,,,,,
541195720,-63,991,15,-761,-1680,1575,-33,-28,91,,,,0x060,,,,,,,,,,,,,,,,,,
541259506,-55,993,20,-1001,-1290,1478,-33,-28,91,,,,0x018,,,,,,,,,,,,,,,,,,
541295010,-55,993,20,-1001,-1290,1478,-31,-33,91,,,,0x060,,,,,,,,,,,,,,,,,,
541338288,-57,1001,23,-122,-275,1045,-31,-33,91,,,,0x018,,,,,,,,,,,,,,,,,,
541394290,-57,1001,23,-122,-275,1045,-40,-34,91,,,,0x060,,,,,,,,,,,,,,,,,,
541417069,-55,991,16,-1137,-371,-472,-40,-34,91,,,,0x018,,,,,,,,,,,,,,,,,,
541493567,-55,991,16,-1137,-371,-472,-39,-27,90,,,,0x060,,,,,,,,,,,,,,,,,,
541497894,-57,990,26,-1531,-1273,170,-39,-27,90,,,,0x018,,,,,,,,,,,,,,,,,,
541576439,-56,981,37,-1885,-717,678,-39,-27,90,,,,0x018,,,,,,,,,,,,,,,,,,
541591433,-56,981,37,-1885,-717,678,-37,-31,94,,,,0x020,,,,,,,,,,,,,,,,,,
541657268,-57,999,24,-3316,1535,1981,-37,-31,94,,,,0x058,,,,,,,,,,,,,,,,,,
541690715,-57,999,24,-3316,1535,1981,-37,-21,87,,,,0x020,,,,,,,,,,,,,,,,,,
541736055,-53,994,30,-6566,910,1439,-37,-21,87,,,,0x058,,,,,,,,,,,,,,,,,,
541790003,-53,994,30,-6566,910,1439,-37,-24,72,,,,0x020,,,,,,,,,,,,,,,,,,
541814837,-53,971,57,-15054,87,3583,-37,-24,72,,,,0x058,,,,,,,,,,,,,,,,,,
541889284,-53,971,57,-15054,87,3583,-27,-27,73,,,,0x020,,,,,,,,,,,,,,,,,,
541895662,-47,992,79,-21008,-1841,6002,-27,-27,73,,,,0x018,,,,,,,,,,,,,,,,,,
541974217,-28,1000,118,-24088,-4585,4847,-27,-27,73,,,,0x058,,,,,,,,,,,,,,,,,,
541987162,-28,1000,118,-24088,-4585,4847,-25,-39,51,,,,0x020,,,,,,,,,,,,,,,,,,
542055052,-28,993,174,-22513,-4077,3657,-25,-39,51,,,,0x058,,,,,,,,,,,,,,,,,,
542086449,-28,993,174,-22513,-4077,3657,-21,-27,51,,,,0x020,,,,,,,,,,,,,,,,,,
542133835,-20,975,177,-16489,-761,1106,-21,-27,51,,,,0x058,,,,,,,,,,,,,,,,,,
542185730,-20,975,177,-16489,-761,1106,-36,-36,30,,,,0x020,,,,,,,,,,,,,,,,,,
542212619,-20,975,177,-24018,-914,1548,-36,-36,30,,,,0x050,,,,,,,,,,,,,,,,,,
542214994,-24,987,228,-24018,-914,1548,-36,-36,30,,,,0x008,,,,,,,,,,,,,,,,,,
542285021,-24,987,228,-24018,-914,1548,-25,-45,13,,,,0x020,,,,,,,,,,,,,,,,,,
542293447,-23,972,248,-31360,2848,-65,-25,-45,13,,,,0x018,,,,,,,,,,,,,,,,,,
542372003,-30,942,262,-32431,5595,3823,-25,-45,13,,,,0x058,,,,,,,,,,,,,,,,,,
542382897,-30,942,262,-32431,5595,3823,-21,-28,-7,,,,0x020,,,,,,,,,,,,,,,,,,
542452834,-31,932,323,-32659,2318,6645,-21,-28,-7,,,,0x058,,,,,,,,,,,,,,,,,,
542482178,-31,932,323,-32659,2318,6645,-16,-27,-27,,,,0x020,,,,,,,,,,,,,,,,,,
542531619,-5,916,380,-25900,-2178,2563,-16,-27,-27,,,,0x058,,,,,,,,,,,,,,,,,,
542581466,-5,916,380,-25900,-2178,2563,-22,-28,-36,,,,0x020,,,,,,,,,,,,,,,,,,
542612454,-16,948,404,-27190,-1701,2073,-22,-28,-36,,,,0x058,,,,,,,,,,,,,,,,,,
542680757,-16,948,404,-27190,-1701,2073,-18,-25,-54,,,,0x020,,,,,,,,,,,,,,,,,,
542691234,-16,896,429,-29404,1080,485,-18,-25,-54,,,,0x018,,,,,,,,,,,,,,,,,,
542769786,-9,851,489,-33490,1085,875,-18,-25,-54,,,,0x058,,,,,,,,,,,,,,,,,,
542778630,-9,851,489,-33490,1085,875,-13,-18,-79,,,,0x020,,,,,,,,,,,,,,,,,,
542850621,-2,858,527,-40258,-144,2030,-13,-18,-79,,,,0x058,,,,,,,,,,,,,,,,,,
542877916,-2,858,527,-40258,-144,2030,-18,-22,-96,,,,0x020,,,,,,,,,,,,,,,,,,
542929405,-14,844,562,-29303,2279,1163,-18,-22,-96,,,,0x058,,,,,,,,,,,,,,,,,,
542977205,-14,844,562,-29303,2279,1163,-27,-7,-105,,,,0x020,,,,,,,,,,,,,,,,,,
543008183,-14,844,562,-34063,2143,-691,-27,-7,-105,,,,0x010,,,,,,,,,,,,,,,,,,
543010558,-8,782,608,-34063,2143,-691,-27,-7,-105,,,,0x008,,,,,,,,,,,,,,,,,,
543074450,-8,782,608,-34063,2143,-691,-27,4,-141,,,,0x060,,,,,,,,,,,,,,,,,,
543089027,-14,791,640,-37979,2445,3272,-27,4,-141,,,,0x018,,,,,,,,,,,,,,,,,,
543167580,-12,731,687,-30388,3346,140,-27,4,-141,,,,0x058,,,,,,,,,,,,,,,,,,
543174374,-12,731,687,-30388,3346,140,-22,-3,-150,,,,0x020,,,,,,,,,,,,,,,,,,
543248416,-17,702,715,-36071,4431,2848,-22,-3,-150,,,,0x058,,,,,,,,,,,,,,,,,,
543273664,-17,702,715,-36071,4431,2848,-19,27,-160,,,,0x020,,,,,,,,,,,,,,,,,,
543327203,-24,702,732,-39274,8067,6076,-19,27,-160,,,,0x058,,,,,,,,,,,,,,,,,,
543372950,-24,702,732,-39274,8067,6076,-28,34,-183,,,,0x020,,,,,,,,,,,,,,,,,,
543408027,-25,649,752,-31482,4536,2310,-28,34,-183,,,,0x018,,,,,,,,,,,,,,,,,,
543472230,-25,649,752,-31482,4536,2310,-30,45,-193,,,,0x060,,,,,,,,,,,,,,,,,,
543486808,-29,594,809,-34860,-1115,-3333,-30,45,-193,,,,0x018,,,,,,,,,,,,,,,,,,
543565367,-29,594,809,-35406,-2581,-1973,-30,45,-193,,,,0x050,,,,,,,,,,,,,,,,,,
543567742,-15,550,840,-35406,-2581,-1973,-30,45,-193,,,,0x008,,,,,,,,,,,,,,,,,,
543570119,-15,550,840,-35406,-2581,-1973,-24,61,-207,,,,0x020,,,,,,,,,,,,,,,,,,
543646216,-23,501,900,-55260,144,5573,-24,61,-207,,,,0x058,,,,,,,,,,,,,,,,,,
543669411,-23,501,900,-55260,144,5573,-36,87,-228,,,,0x020,,,,,,,,,,,,,,,,,,
543724988,-19,466,899,-49113,3959,4900,-36,87,-228,,,,0x018,,,,,,,,,,,,,,,,,,
543768696,-19,466,899,-49113,3959,4900,-21,111,-253,,,,0x060,,,,,,,,,,,,,,,,,,
543805824,-24,401,923,-38723,2086,1741,-21,111,-253,,,,0x018,,,,,,,,,,,,,,,,,,
543867977,-24,401,923,-38723,2086,1741,-28,109,-262,,,,0x060,,,,,,,,,,,,,,,,,,
543884605,-23,367,937,-30607,1198,-896,-28,109,-262,,,,0x018,,,,,,,,,,,,,,,,,,
543965213,-27,302,960,-22885,-1400,-6339,-30,126,-264,,,,0x078,,,,,,,,,,,,,,,,,,
544043987,-26,274,971,-25348,-1330,-2178,-30,126,-264,,,,0x058,,,,,,,,,,,,,,,,,,
544065132,-26,274,971,-25348,-1330,-2178,-33,142,-265,,,,0x020,,,,,,,,,,,,,,,,,,
544122765,-29,239,985,-47481,-1802,1828,-33,142,-265,,,,0x018,,,,,,,,,,,,,,,,,,
544164419,-29,239,985,-47481,-1802,1828,-36,166,-286,,,,0x060,,,,,,,,,,,,,,,,,,
544203599,-12,177,993,-46471,-3591,-2555,-36,166,-286,,,,0x018,,,,,,,,,,,,,,,,,,
544263707,-12,177,993,-46471,-3591,-2555,-39,186,-282,,,,0x060,,,,,,,,,,,,,,,,,,
544282384,-11,114,1015,-28048,-4458,-2393,-39,186,-282,,,,0x018,,,,,,,,,,,,,,,,,,
544362988,-5,84,995,-27326,-3386,1076,-30,196,-286,,,,0x078,,,,,,,,,,,,,,,,,,
544441767,-5,57,1019,-25873,-5976,1325,-30,196,-286,,,,0x058,,,,,,,,,,,,,,,,,,
544460862,-5,57,1019,-25873,-5976,1325,-19,207,-295,,,,0x020,,,,,,,,,,,,,,,,,,
544522593,3,28,1023,-11830,-945,463,-19,207,-295,,,,0x018,,,,,,,,,,,,,,,,,,
544560147,3,28,1023,-11830,-945,463,-24,217,-285,,,,0x060,,,,,,,,,,,,,,,,,,
544601375,0,23,1022,-16563,-1391,1308,-24,217,-285,,,,0x018,,,,,,,,,,,,,,,,,,
544659428,0,23,1022,-16563,-1391,1308,-21,225,-297,,,,0x060,,,,,,,,,,,,,,,,,,
544680158,2,-1,1010,-6938,-446,-634,-21,225,-297,,,,0x018,,,,,,,,,,,,,,,,,,
544758716,2,-1,1010,-6938,-446,-634,-33,216,-300,,,,0x060,,,,,,,,,,,,,,,,,,
544760991,3,-3,1012,-6737,-288,-1010,-33,216,-300,,,,0x018,,,,,,,,,,,,,,,,,,
544839537,6,-25,1023,-6553,-1671,-332,-33,216,-300,,,,0x018,,,,,,,,,,,,,,,,,,
544856589,6,-25,1023,-6553,-1671,-332,-22,231,-292,,,,0x060,,,,,,,,,,,,,,,,,,
544920368,5,-11,1010,-4926,-787,1032,-22,231,-292,,,,0x018,,,,,,,,,,,,,,,,,,
544955874,5,-11,1010,-4926,-787,1032,-22,231,-300,,,,0x060,,,,,,,,,,,,,,,,,,
544999156,5,-50,1027,-6575,-2051,-844,-22,231,-300,,,,0x018,,,,,,,,,,,,,,,,,,
545055163,5,-50,1027,-6575,-2051,-844,-27,229,-282,,,,0x060,,,,,,,,,,,,,,,,,,
545077941,12,-12,1006,7052,573,1211,-27,229,-282,,,,0x018,,,,,,,,,,,,,,,,,,
545154445,12,-12,1006,7052,573,1211,-27,231,-289,,,,0x060,,,,,,,,,,,,,,,,,,
545158772,10,-31,1020,-4777,-1229,-70,-27,231,-289,,,,0x018,,,,,,,,,,,,,,,,,,
545237317,10,-26,1019,1544,113,752,-27,231,-289,,,,0x018,,,,,,,,,,,,,,,,,,
545252320,10,-26,1019,1544,113,752,-24,226,-298,,,,0x060,,,,,,,,,,,,,,,,,,
545318155,7,-26,1019,997,385,245,-24,226,-298,,,,0x018,,,,,,,,,,,,,,,,,,
545351601,7,-26,1019,997,385,245,-28,237,-295,,,,0x060,,,,,,,,,,,,,,,,,,
545396929,5,-24,1010,-971,253,441,-28,237,-295,,,,0x018,,,,,,,,,,,,,,,,,,
545450873,5,-24,1010,-971,253,441,-28,235,-300,,,,0x020,,,,,,,,,,,,,,,,,,
545477760,6,-33,1019,288,-520,122,-28,235,-300,,,,0x058,,,,,,,,,,,,,,,,,,
545550161,6,-33,1019,288,-520,122,-30,238,-291,,,,0x020,,,,,,,,,,,,,,,,,,
545556544,12,-29,1015,-61,-516,91,-30,238,-291,,,,0x058,,,,,,,,,,,,,,,,,,
545637144,12,-31,1024,660,-704,166,-30,238,-291,,,,0x018,,,,,,,,,,,,,,,,,,
545648037,12,-31,1024,660,-704,166,-18,226,-289,,,,0x020,,,,,,,,,,,,,,,,,,
545715925,12,-30,1015,-166,686,367,-18,226,-289,,,,0x058,,,,,,,,,,,,,,,,,,
545747320,12,-30,1015,-166,686,367,-31,235,-291,,,,0x020,,,,,,,,,,,,,,,,,,
545794711,9,-35,1007,-888,144,223,-31,235,-291,,,,0x058,,,,,,,,,,,,,,,,,,
545846610,9,-35,1007,-888,144,223,-24,237,-294,,,,0x020,,,,,,,,,,,,,,,,,,
545875545,8,-23,1027,1719,4,743,-24,237,-294,,,,0x058,,,,,,,,,,,,,,,,,,
545945895,8,-23,1027,1719,4,743,-24,229,-288,,,,0x020,,,,,,,,,,,,,,,,,,
545954322,10,-25,1014,301,603,266,-24,229,-288,,,,0x018,,,,,,,,,,,,,,,,,,
546034929,6,-34,1018,-1491,61,-4,-24,229,-288,,,,0x058,,,,,,,,,,,,,,,,,,
546043773,6,-34,1018,-1491,61,-4,-19,225,-301,,,,0x020,,,,,,,,,,,,,,,,,,
546113715,7,-32,1013,-39,153,175,-19,225,-301,,,,0x058,,,,,,,,,,,,,,,,,,
546143060,7,-32,1013,-39,153,175,-30,229,-294,,,,0x020,,,,,,,,,,,,,,,,,,
546192499,9,-33,1015,415,17,-21,-30,229,-294,,,,0x058,,,,,,,,,,,,,,,,,,
546242346,9,-33,1015,415,17,-21,-25,234,-288,,,,0x020,,,,,,,,,,,,,,,,,,
546273332,11,-34,1022,-258,-402,13,-25,234,-288,,,,0x058,,,,,,,,,,,,,,,,,,
546341626,11,-34,1022,-258,-402,13,-34,226,-297,,,,0x020,,,,,,,,,,,,,,,,,,
546352104,11,-34,1013,-30,48,109,-34,226,-297,,,,0x018,,,,,,,,,,,,,,,,,,
546432714,6,-33,1021,-468,122,656,-34,226,-297,,,,0x058,,,,,,,,,,,,,,,,,,
546439508,6,-33,1021,-468,122,656,-22,240,-294,,,,0x020,,,,,,,,,,,,,,,,,,
546511498,7,-32,1013,669,144,70,-22,240,-294,,,,0x058,,,,,,,,,,,,,,,,,,
546538794,7,-32,1013,669,144,70,-30,225,-291,,,,0x020,,,,,,,,,,,,,,,,,,
546592330,9,-37,1011,-616,-96,61,-30,225,-291,,,,0x058,,,,,,,,,,,,,,,,,,
546638073,9,-37,1011,-616,-96,61,-22,235,-295,,,,0x020,,,,,,,,,,,,,,,,,,
546671103,8,-32,1023,-48,-542,166,-22,235,-295,,,,0x058,,,,,,,,,,,,,,,,,,
546737353,8,-32,1023,-48,-542,166,-22,235,-294,,,,0x020,,,,,,,,,,,,,,,,,,
546749881,12,-31,1015,-503,-192,35,-22,235,-294,,,,0x018,,,,,,,,,,,,,,,,,,
